#
# Results on Friday November 13 2020 17:06:35 UTC.
# USER AGENT: Mozilla/5.0 (Windows NT 10.0; Win64; x64) AppleWebKit/537.36 (KHTML, like Gecko) Chrome/86.0.4240.193 Safari/537.36
# Design number was non-random = 0
#
# Columns below this comment are as follows:
# 1. Time results were received.
# 2. MD5 hash of participant's IP address.
# 3. Controller name.
# 4. Item number.
# 5. Element number.
# 6. Type.
# 7. Group.
# 8. Field name.
# 9. Field value.
1605287195,cc88d0f8e4569880539c5298528905aa,Form,1,0,intro1,NULL,_REACTION_TIME_,5496
1605287195,cc88d0f8e4569880539c5298528905aa,Form,2,0,intro2,NULL,_REACTION_TIME_,15195
1605287195,cc88d0f8e4569880539c5298528905aa,AY_Form_inst,11,0,control.presup,7,_REACTION_TIME_,3275
# Columns below this comment are as follows:
# 1. Time results were received.
# 2. MD5 hash of participant's IP address.
# 3. Controller name.
# 4. Item number.
# 5. Element number.
# 6. Type.
# 7. Group.
# 8. Sentence (or sentence MD5).
1605287195,cc88d0f8e4569880539c5298528905aa,SingleSlider,11,1,control.presup,7,<p>Eva is an alien from this planet. Here%2C some aliens are fleppers and some aliens are not fleppers.</p> <p>Most of the fleppers have a lammor.</p> <p><b>Eva is a flepper%2C and she has a lammor.</b></p> 
1605287195,cc88d0f8e4569880539c5298528905aa,SingleSlider,11,1,control.presup,7, <br> <p>How surprised would you be if you learned that ...?</p> 
# The lines below this comment are in groups of 2.
# The formats of the lines in each of these groups are as follows:
#
# Line 1:
#     Col. 1: Time results were received.
#     Col. 2: MD5 hash of participant's IP address.
#     Col. 3: Controller name.
#     Col. 4: Item number.
#     Col. 5: Element number.
#     Col. 6: Type.
#     Col. 7: Group.
#     Col. 8: html.
#     Col. 9: startValue.
#     Col. 10: endValue.
#     Col. 11: value.
# Line 2:
#     Col. 1: Time results were received.
#     Col. 2: MD5 hash of participant's IP address.
#     Col. 3: Controller name.
#     Col. 4: Item number.
#     Col. 5: Element number.
#     Col. 6: Type.
#     Col. 7: Group.
#     Col. 8: Sentence (or sentence MD5).
1605287195,cc88d0f8e4569880539c5298528905aa,SingleSlider,11,1,control.presup,7,<b>Eva doesn't have a lammor.</b> ,0.00,100.00,63.00
1605287195,cc88d0f8e4569880539c5298528905aa,SingleSlider,12,0,control.ant,8,<p>Eva is an alien from this planet. Here%2C  some aliens are fleppers and some aliens are not fleppers.</p> <p>Most of the fleppers have a lammor.</p> <p><b>Eva is a flepper%2C and she has a lammor.</b></p> 
# The lines below this comment are in groups of 2.
# The formats of the lines in each of these groups are as follows:
#
# Line 1:
#     Col. 1: Time results were received.
#     Col. 2: MD5 hash of participant's IP address.
#     Col. 3: Controller name.
#     Col. 4: Item number.
#     Col. 5: Element number.
#     Col. 6: Type.
#     Col. 7: Group.
#     Col. 8: Sentence (or sentence MD5).
# Line 2:
#     Col. 1: Time results were received.
#     Col. 2: MD5 hash of participant's IP address.
#     Col. 3: Controller name.
#     Col. 4: Item number.
#     Col. 5: Element number.
#     Col. 6: Type.
#     Col. 7: Group.
#     Col. 8: html.
#     Col. 9: startValue.
#     Col. 10: endValue.
#     Col. 11: value.
1605287195,cc88d0f8e4569880539c5298528905aa,SingleSlider,12,0,control.ant,8, <br> <p>How surprised would you be if you learned that ...?</p> 
1605287195,cc88d0f8e4569880539c5298528905aa,SingleSlider,12,0,control.ant,8,<b>Eva is a flepper.</b> ,0.00,100.00,0.00
# The lines below this comment are in groups of 2.
# The formats of the lines in each of these groups are as follows:
#
# Line 1:
#     Col. 1: Time results were received.
#     Col. 2: MD5 hash of participant's IP address.
#     Col. 3: Controller name.
#     Col. 4: Item number.
#     Col. 5: Element number.
#     Col. 6: Type.
#     Col. 7: Group.
#     Col. 8: Field name.
#     Col. 9: Field value.
# Line 2:
#     Col. 1: Time results were received.
#     Col. 2: MD5 hash of participant's IP address.
#     Col. 3: Controller name.
#     Col. 4: Item number.
#     Col. 5: Element number.
#     Col. 6: Type.
#     Col. 7: Group.
#     Col. 8: Sentence (or sentence MD5).
1605287195,cc88d0f8e4569880539c5298528905aa,AY_Form_inst,5,0,independent.presup,1,_REACTION_TIME_,2347
1605287195,cc88d0f8e4569880539c5298528905aa,SingleSlider,5,1,independent.presup,1,<p>Ann is an alien from this planet. Here%2C some aliens are glorps and some aliens are not glorps.</p> <p>Some of the aliens have dords%2C but it doesn’t matter whether they’re glorps or not.</p> <p><b>If Ann is a glorp%2C she will yapple her dord.</b></p> 
# The lines below this comment are in groups of 2.
# The formats of the lines in each of these groups are as follows:
#
# Line 1:
#     Col. 1: Time results were received.
#     Col. 2: MD5 hash of participant's IP address.
#     Col. 3: Controller name.
#     Col. 4: Item number.
#     Col. 5: Element number.
#     Col. 6: Type.
#     Col. 7: Group.
#     Col. 8: Sentence (or sentence MD5).
# Line 2:
#     Col. 1: Time results were received.
#     Col. 2: MD5 hash of participant's IP address.
#     Col. 3: Controller name.
#     Col. 4: Item number.
#     Col. 5: Element number.
#     Col. 6: Type.
#     Col. 7: Group.
#     Col. 8: html.
#     Col. 9: startValue.
#     Col. 10: endValue.
#     Col. 11: value.
1605287195,cc88d0f8e4569880539c5298528905aa,SingleSlider,5,1,independent.presup,1, <br> <p>How surprised would you be if you learned that ...?</p> 
1605287195,cc88d0f8e4569880539c5298528905aa,SingleSlider,5,1,independent.presup,1,<b>Ann doesn't have a dord.</b> ,0.00,100.00,83.00
# Columns below this comment are as follows:
# 1. Time results were received.
# 2. MD5 hash of participant's IP address.
# 3. Controller name.
# 4. Item number.
# 5. Element number.
# 6. Type.
# 7. Group.
# 8. Sentence (or sentence MD5).
1605287195,cc88d0f8e4569880539c5298528905aa,SingleSlider,6,0,independent.ant,2,<p>Ann is an alien from this planet. Here%2C some aliens are glorps and some aliens are not glorps.</p> <p>Some of the aliens here have dords%2C but it doesn’t matter whether they’re glorps or not.</p> <p><b>If Ann is a glorp%2C she will yapple her dord.</b></p> 
1605287195,cc88d0f8e4569880539c5298528905aa,SingleSlider,6,0,independent.ant,2, <br> <p>How surprised would you be if you learned that ...?</p> 
# The lines below this comment are in groups of 2.
# The formats of the lines in each of these groups are as follows:
#
# Line 1:
#     Col. 1: Time results were received.
#     Col. 2: MD5 hash of participant's IP address.
#     Col. 3: Controller name.
#     Col. 4: Item number.
#     Col. 5: Element number.
#     Col. 6: Type.
#     Col. 7: Group.
#     Col. 8: html.
#     Col. 9: startValue.
#     Col. 10: endValue.
#     Col. 11: value.
# Line 2:
#     Col. 1: Time results were received.
#     Col. 2: MD5 hash of participant's IP address.
#     Col. 3: Controller name.
#     Col. 4: Item number.
#     Col. 5: Element number.
#     Col. 6: Type.
#     Col. 7: Group.
#     Col. 8: Field name.
#     Col. 9: Field value.
1605287195,cc88d0f8e4569880539c5298528905aa,SingleSlider,6,0,independent.ant,2,<b>Ann is a glorp.</b> ,0.00,100.00,0.00
1605287195,cc88d0f8e4569880539c5298528905aa,AY_Form_inst,7,0,dependent.presup,3,_REACTION_TIME_,1509
# Columns below this comment are as follows:
# 1. Time results were received.
# 2. MD5 hash of participant's IP address.
# 3. Controller name.
# 4. Item number.
# 5. Element number.
# 6. Type.
# 7. Group.
# 8. Sentence (or sentence MD5).
1605287195,cc88d0f8e4569880539c5298528905aa,SingleSlider,7,1,dependent.presup,3,<p>Bea is an alien from this planet. Here%2C some aliens are morties and some aliens are not morties.</p> <p>Half of the morties have a lealo. No one else has lealos.</p> <p><b>If Bea is a mortie%2C she will wegget her lealo.</b></p> 
1605287195,cc88d0f8e4569880539c5298528905aa,SingleSlider,7,1,dependent.presup,3, <br> <p>How surprised would you be if you learned that ...?</p> 
# The lines below this comment are in groups of 2.
# The formats of the lines in each of these groups are as follows:
#
# Line 1:
#     Col. 1: Time results were received.
#     Col. 2: MD5 hash of participant's IP address.
#     Col. 3: Controller name.
#     Col. 4: Item number.
#     Col. 5: Element number.
#     Col. 6: Type.
#     Col. 7: Group.
#     Col. 8: html.
#     Col. 9: startValue.
#     Col. 10: endValue.
#     Col. 11: value.
# Line 2:
#     Col. 1: Time results were received.
#     Col. 2: MD5 hash of participant's IP address.
#     Col. 3: Controller name.
#     Col. 4: Item number.
#     Col. 5: Element number.
#     Col. 6: Type.
#     Col. 7: Group.
#     Col. 8: Sentence (or sentence MD5).
1605287195,cc88d0f8e4569880539c5298528905aa,SingleSlider,7,1,dependent.presup,3,<b>Bea doesn't have a lealo.</b> ,0.00,100.00,37.33
1605287195,cc88d0f8e4569880539c5298528905aa,SingleSlider,8,0,dependent.ant,4,<p>Bea is an alien from this planet. Here%2C some morties and some aliens are not morties.</p> <p>Half of the morties have a lealo. No one else has lealos.</p> <p><b>If Bea is a mortie%2C she will wegget her lealo.</b></p> 
# The lines below this comment are in groups of 2.
# The formats of the lines in each of these groups are as follows:
#
# Line 1:
#     Col. 1: Time results were received.
#     Col. 2: MD5 hash of participant's IP address.
#     Col. 3: Controller name.
#     Col. 4: Item number.
#     Col. 5: Element number.
#     Col. 6: Type.
#     Col. 7: Group.
#     Col. 8: Sentence (or sentence MD5).
# Line 2:
#     Col. 1: Time results were received.
#     Col. 2: MD5 hash of participant's IP address.
#     Col. 3: Controller name.
#     Col. 4: Item number.
#     Col. 5: Element number.
#     Col. 6: Type.
#     Col. 7: Group.
#     Col. 8: html.
#     Col. 9: startValue.
#     Col. 10: endValue.
#     Col. 11: value.
1605287195,cc88d0f8e4569880539c5298528905aa,SingleSlider,8,0,dependent.ant,4, <br> <p>How surprised would you be if you learned that ...?</p> 
1605287195,cc88d0f8e4569880539c5298528905aa,SingleSlider,8,0,dependent.ant,4,<b>Bea is a mortie. </b>,0.00,100.00,62.67
# The lines below this comment are in groups of 2.
# The formats of the lines in each of these groups are as follows:
#
# Line 1:
#     Col. 1: Time results were received.
#     Col. 2: MD5 hash of participant's IP address.
#     Col. 3: Controller name.
#     Col. 4: Item number.
#     Col. 5: Element number.
#     Col. 6: Type.
#     Col. 7: Group.
#     Col. 8: Field name.
#     Col. 9: Field value.
# Line 2:
#     Col. 1: Time results were received.
#     Col. 2: MD5 hash of participant's IP address.
#     Col. 3: Controller name.
#     Col. 4: Item number.
#     Col. 5: Element number.
#     Col. 6: Type.
#     Col. 7: Group.
#     Col. 8: Sentence (or sentence MD5).
1605287195,cc88d0f8e4569880539c5298528905aa,AY_Form_inst,9,0,fulldep.presup,5,_REACTION_TIME_,1468
1605287195,cc88d0f8e4569880539c5298528905aa,SingleSlider,9,1,fulldep.presup,5,<p>Cece is an alien from this planet. Here%2C some aliens are gogopos and some aliens are not gogopos.</p> <p>All gogopos have a hoopler. No one else has hooplers.</p> <p><b>If Cece is a gogopo%2C she will dippefy her hoopler.</b></p> 
# The lines below this comment are in groups of 2.
# The formats of the lines in each of these groups are as follows:
#
# Line 1:
#     Col. 1: Time results were received.
#     Col. 2: MD5 hash of participant's IP address.
#     Col. 3: Controller name.
#     Col. 4: Item number.
#     Col. 5: Element number.
#     Col. 6: Type.
#     Col. 7: Group.
#     Col. 8: Sentence (or sentence MD5).
# Line 2:
#     Col. 1: Time results were received.
#     Col. 2: MD5 hash of participant's IP address.
#     Col. 3: Controller name.
#     Col. 4: Item number.
#     Col. 5: Element number.
#     Col. 6: Type.
#     Col. 7: Group.
#     Col. 8: html.
#     Col. 9: startValue.
#     Col. 10: endValue.
#     Col. 11: value.
1605287195,cc88d0f8e4569880539c5298528905aa,SingleSlider,9,1,fulldep.presup,5, <br> <p>How surprised would you be if you learned that ...?</p> 
1605287195,cc88d0f8e4569880539c5298528905aa,SingleSlider,9,1,fulldep.presup,5,<b>Cece doesn't have a hoopler.</b> ,0.00,100.00,100.00
# Columns below this comment are as follows:
# 1. Time results were received.
# 2. MD5 hash of participant's IP address.
# 3. Controller name.
# 4. Item number.
# 5. Element number.
# 6. Type.
# 7. Group.
# 8. Sentence (or sentence MD5).
1605287195,cc88d0f8e4569880539c5298528905aa,SingleSlider,10,0,fulldep.ant,6,<p>Cece is an alien from this planet. Here%2C   some aliens are gogopos and some aliens are not gogopos.</p> <p>All gogopos have a hoopler. No one else has hooplers.</p> <p><b>If Cece is a gogopo%2C she will dippefy her hoopler.</b></p> 
1605287195,cc88d0f8e4569880539c5298528905aa,SingleSlider,10,0,fulldep.ant,6, <br> <p>How surprised would you be if you learned that ...?</p> 
# The lines below this comment are in groups of 2.
# The formats of the lines in each of these groups are as follows:
#
# Line 1:
#     Col. 1: Time results were received.
#     Col. 2: MD5 hash of participant's IP address.
#     Col. 3: Controller name.
#     Col. 4: Item number.
#     Col. 5: Element number.
#     Col. 6: Type.
#     Col. 7: Group.
#     Col. 8: html.
#     Col. 9: startValue.
#     Col. 10: endValue.
#     Col. 11: value.
# Line 2:
#     Col. 1: Time results were received.
#     Col. 2: MD5 hash of participant's IP address.
#     Col. 3: Controller name.
#     Col. 4: Item number.
#     Col. 5: Element number.
#     Col. 6: Type.
#     Col. 7: Group.
#     Col. 8: Field name.
#     Col. 9: Field value.
1605287195,cc88d0f8e4569880539c5298528905aa,SingleSlider,10,0,fulldep.ant,6,<b>Cece is a gogopo.</b> ,0.00,100.00,0.00
1605287195,cc88d0f8e4569880539c5298528905aa,Form,3,0,exit,NULL,comment,
# Columns below this comment are as follows:
# 1. Time results were received.
# 2. MD5 hash of participant's IP address.
# 3. Controller name.
# 4. Item number.
# 5. Element number.
# 6. Type.
# 7. Group.
# 8. Field name.
# 9. Field value.
1605287195,cc88d0f8e4569880539c5298528905aa,Form,3,0,exit,NULL,_REACTION_TIME_,1814
#
# Results on Friday November 13 2020 17:27:21 UTC.
# USER AGENT: Mozilla/5.0 (Windows NT 10.0; Win64; x64; rv:82.0) Gecko/20100101 Firefox/82.0
# Design number was non-random = 1
#
# Columns below this comment are as follows:
# 1. Time results were received.
# 2. MD5 hash of participant's IP address.
# 3. Controller name.
# 4. Item number.
# 5. Element number.
# 6. Type.
# 7. Group.
# 8. Field name.
# 9. Field value.
1605288441,be673d77fd235fc63631356380dbeeaa,Form,1,0,intro1,NULL,_REACTION_TIME_,136659
1605288441,be673d77fd235fc63631356380dbeeaa,Form,2,0,intro2,NULL,_REACTION_TIME_,15166
1605288441,be673d77fd235fc63631356380dbeeaa,AY_Form_inst,11,0,control.presup,7,_REACTION_TIME_,2767
# Columns below this comment are as follows:
# 1. Time results were received.
# 2. MD5 hash of participant's IP address.
# 3. Controller name.
# 4. Item number.
# 5. Element number.
# 6. Type.
# 7. Group.
# 8. Sentence (or sentence MD5).
1605288441,be673d77fd235fc63631356380dbeeaa,SingleSlider,11,1,control.presup,7,<p>Eva is an alien from this planet. Here%2C some aliens are fleppers and some aliens are not fleppers.</p> <p>Most of the fleppers have a lammor.</p> <p><b>Eva is a flepper%2C and she has a lammor.</b></p> 
1605288441,be673d77fd235fc63631356380dbeeaa,SingleSlider,11,1,control.presup,7, <br> <p>How surprised would you be if you learned that ...?</p> 
# The lines below this comment are in groups of 2.
# The formats of the lines in each of these groups are as follows:
#
# Line 1:
#     Col. 1: Time results were received.
#     Col. 2: MD5 hash of participant's IP address.
#     Col. 3: Controller name.
#     Col. 4: Item number.
#     Col. 5: Element number.
#     Col. 6: Type.
#     Col. 7: Group.
#     Col. 8: html.
#     Col. 9: startValue.
#     Col. 10: endValue.
#     Col. 11: value.
# Line 2:
#     Col. 1: Time results were received.
#     Col. 2: MD5 hash of participant's IP address.
#     Col. 3: Controller name.
#     Col. 4: Item number.
#     Col. 5: Element number.
#     Col. 6: Type.
#     Col. 7: Group.
#     Col. 8: Sentence (or sentence MD5).
1605288441,be673d77fd235fc63631356380dbeeaa,SingleSlider,11,1,control.presup,7,<b>Eva doesn't have a lammor.</b> ,0.00,100.00,99.00
1605288441,be673d77fd235fc63631356380dbeeaa,SingleSlider,12,0,control.ant,8,<p>Eva is an alien from this planet. Here%2C  some aliens are fleppers and some aliens are not fleppers.</p> <p>Most of the fleppers have a lammor.</p> <p><b>Eva is a flepper%2C and she has a lammor.</b></p> 
# The lines below this comment are in groups of 2.
# The formats of the lines in each of these groups are as follows:
#
# Line 1:
#     Col. 1: Time results were received.
#     Col. 2: MD5 hash of participant's IP address.
#     Col. 3: Controller name.
#     Col. 4: Item number.
#     Col. 5: Element number.
#     Col. 6: Type.
#     Col. 7: Group.
#     Col. 8: Sentence (or sentence MD5).
# Line 2:
#     Col. 1: Time results were received.
#     Col. 2: MD5 hash of participant's IP address.
#     Col. 3: Controller name.
#     Col. 4: Item number.
#     Col. 5: Element number.
#     Col. 6: Type.
#     Col. 7: Group.
#     Col. 8: html.
#     Col. 9: startValue.
#     Col. 10: endValue.
#     Col. 11: value.
1605288441,be673d77fd235fc63631356380dbeeaa,SingleSlider,12,0,control.ant,8, <br> <p>How surprised would you be if you learned that ...?</p> 
1605288441,be673d77fd235fc63631356380dbeeaa,SingleSlider,12,0,control.ant,8,<b>Eva is a flepper.</b> ,0.00,100.00,0.00
# The lines below this comment are in groups of 2.
# The formats of the lines in each of these groups are as follows:
#
# Line 1:
#     Col. 1: Time results were received.
#     Col. 2: MD5 hash of participant's IP address.
#     Col. 3: Controller name.
#     Col. 4: Item number.
#     Col. 5: Element number.
#     Col. 6: Type.
#     Col. 7: Group.
#     Col. 8: Field name.
#     Col. 9: Field value.
# Line 2:
#     Col. 1: Time results were received.
#     Col. 2: MD5 hash of participant's IP address.
#     Col. 3: Controller name.
#     Col. 4: Item number.
#     Col. 5: Element number.
#     Col. 6: Type.
#     Col. 7: Group.
#     Col. 8: Sentence (or sentence MD5).
1605288441,be673d77fd235fc63631356380dbeeaa,AY_Form_inst,5,0,independent.presup,1,_REACTION_TIME_,3146
1605288441,be673d77fd235fc63631356380dbeeaa,SingleSlider,5,1,independent.presup,1,<p>Ann is an alien from this planet. Here%2C some aliens are glorps and some aliens are not glorps.</p> <p>Some of the aliens have dords%2C but it doesn’t matter whether they’re glorps or not.</p> <p><b>If Ann is a glorp%2C she will yapple her dord.</b></p> 
# The lines below this comment are in groups of 2.
# The formats of the lines in each of these groups are as follows:
#
# Line 1:
#     Col. 1: Time results were received.
#     Col. 2: MD5 hash of participant's IP address.
#     Col. 3: Controller name.
#     Col. 4: Item number.
#     Col. 5: Element number.
#     Col. 6: Type.
#     Col. 7: Group.
#     Col. 8: Sentence (or sentence MD5).
# Line 2:
#     Col. 1: Time results were received.
#     Col. 2: MD5 hash of participant's IP address.
#     Col. 3: Controller name.
#     Col. 4: Item number.
#     Col. 5: Element number.
#     Col. 6: Type.
#     Col. 7: Group.
#     Col. 8: html.
#     Col. 9: startValue.
#     Col. 10: endValue.
#     Col. 11: value.
1605288441,be673d77fd235fc63631356380dbeeaa,SingleSlider,5,1,independent.presup,1, <br> <p>How surprised would you be if you learned that ...?</p> 
1605288441,be673d77fd235fc63631356380dbeeaa,SingleSlider,5,1,independent.presup,1,<b>Ann doesn't have a dord.</b> ,0.00,100.00,93.33
# Columns below this comment are as follows:
# 1. Time results were received.
# 2. MD5 hash of participant's IP address.
# 3. Controller name.
# 4. Item number.
# 5. Element number.
# 6. Type.
# 7. Group.
# 8. Sentence (or sentence MD5).
1605288441,be673d77fd235fc63631356380dbeeaa,SingleSlider,6,0,independent.ant,2,<p>Ann is an alien from this planet. Here%2C some aliens are glorps and some aliens are not glorps.</p> <p>Some of the aliens here have dords%2C but it doesn’t matter whether they’re glorps or not.</p> <p><b>If Ann is a glorp%2C she will yapple her dord.</b></p> 
1605288441,be673d77fd235fc63631356380dbeeaa,SingleSlider,6,0,independent.ant,2, <br> <p>How surprised would you be if you learned that ...?</p> 
# The lines below this comment are in groups of 2.
# The formats of the lines in each of these groups are as follows:
#
# Line 1:
#     Col. 1: Time results were received.
#     Col. 2: MD5 hash of participant's IP address.
#     Col. 3: Controller name.
#     Col. 4: Item number.
#     Col. 5: Element number.
#     Col. 6: Type.
#     Col. 7: Group.
#     Col. 8: html.
#     Col. 9: startValue.
#     Col. 10: endValue.
#     Col. 11: value.
# Line 2:
#     Col. 1: Time results were received.
#     Col. 2: MD5 hash of participant's IP address.
#     Col. 3: Controller name.
#     Col. 4: Item number.
#     Col. 5: Element number.
#     Col. 6: Type.
#     Col. 7: Group.
#     Col. 8: Field name.
#     Col. 9: Field value.
1605288441,be673d77fd235fc63631356380dbeeaa,SingleSlider,6,0,independent.ant,2,<b>Ann is a glorp.</b> ,0.00,100.00,0.00
1605288441,be673d77fd235fc63631356380dbeeaa,AY_Form_inst,7,0,dependent.presup,3,_REACTION_TIME_,21218
# Columns below this comment are as follows:
# 1. Time results were received.
# 2. MD5 hash of participant's IP address.
# 3. Controller name.
# 4. Item number.
# 5. Element number.
# 6. Type.
# 7. Group.
# 8. Sentence (or sentence MD5).
1605288441,be673d77fd235fc63631356380dbeeaa,SingleSlider,7,1,dependent.presup,3,<p>Bea is an alien from this planet. Here%2C some aliens are morties and some aliens are not morties.</p> <p>Half of the morties have a lealo. No one else has lealos.</p> <p><b>If Bea is a mortie%2C she will wegget her lealo.</b></p> 
1605288441,be673d77fd235fc63631356380dbeeaa,SingleSlider,7,1,dependent.presup,3, <br> <p>How surprised would you be if you learned that ...?</p> 
# The lines below this comment are in groups of 2.
# The formats of the lines in each of these groups are as follows:
#
# Line 1:
#     Col. 1: Time results were received.
#     Col. 2: MD5 hash of participant's IP address.
#     Col. 3: Controller name.
#     Col. 4: Item number.
#     Col. 5: Element number.
#     Col. 6: Type.
#     Col. 7: Group.
#     Col. 8: html.
#     Col. 9: startValue.
#     Col. 10: endValue.
#     Col. 11: value.
# Line 2:
#     Col. 1: Time results were received.
#     Col. 2: MD5 hash of participant's IP address.
#     Col. 3: Controller name.
#     Col. 4: Item number.
#     Col. 5: Element number.
#     Col. 6: Type.
#     Col. 7: Group.
#     Col. 8: Sentence (or sentence MD5).
1605288441,be673d77fd235fc63631356380dbeeaa,SingleSlider,7,1,dependent.presup,3,<b>Bea doesn't have a lealo.</b> ,0.00,100.00,98.67
1605288441,be673d77fd235fc63631356380dbeeaa,SingleSlider,8,0,dependent.ant,4,<p>Bea is an alien from this planet. Here%2C some morties and some aliens are not morties.</p> <p>Half of the morties have a lealo. No one else has lealos.</p> <p><b>If Bea is a mortie%2C she will wegget her lealo.</b></p> 
# The lines below this comment are in groups of 2.
# The formats of the lines in each of these groups are as follows:
#
# Line 1:
#     Col. 1: Time results were received.
#     Col. 2: MD5 hash of participant's IP address.
#     Col. 3: Controller name.
#     Col. 4: Item number.
#     Col. 5: Element number.
#     Col. 6: Type.
#     Col. 7: Group.
#     Col. 8: Sentence (or sentence MD5).
# Line 2:
#     Col. 1: Time results were received.
#     Col. 2: MD5 hash of participant's IP address.
#     Col. 3: Controller name.
#     Col. 4: Item number.
#     Col. 5: Element number.
#     Col. 6: Type.
#     Col. 7: Group.
#     Col. 8: html.
#     Col. 9: startValue.
#     Col. 10: endValue.
#     Col. 11: value.
1605288441,be673d77fd235fc63631356380dbeeaa,SingleSlider,8,0,dependent.ant,4, <br> <p>How surprised would you be if you learned that ...?</p> 
1605288441,be673d77fd235fc63631356380dbeeaa,SingleSlider,8,0,dependent.ant,4,<b>Bea is a mortie. </b>,0.00,100.00,29.33
# The lines below this comment are in groups of 2.
# The formats of the lines in each of these groups are as follows:
#
# Line 1:
#     Col. 1: Time results were received.
#     Col. 2: MD5 hash of participant's IP address.
#     Col. 3: Controller name.
#     Col. 4: Item number.
#     Col. 5: Element number.
#     Col. 6: Type.
#     Col. 7: Group.
#     Col. 8: Field name.
#     Col. 9: Field value.
# Line 2:
#     Col. 1: Time results were received.
#     Col. 2: MD5 hash of participant's IP address.
#     Col. 3: Controller name.
#     Col. 4: Item number.
#     Col. 5: Element number.
#     Col. 6: Type.
#     Col. 7: Group.
#     Col. 8: Sentence (or sentence MD5).
1605288441,be673d77fd235fc63631356380dbeeaa,AY_Form_inst,9,0,fulldep.presup,5,_REACTION_TIME_,2370
1605288441,be673d77fd235fc63631356380dbeeaa,SingleSlider,9,1,fulldep.presup,5,<p>Cece is an alien from this planet. Here%2C some aliens are gogopos and some aliens are not gogopos.</p> <p>All gogopos have a hoopler. No one else has hooplers.</p> <p><b>If Cece is a gogopo%2C she will dippefy her hoopler.</b></p> 
# The lines below this comment are in groups of 2.
# The formats of the lines in each of these groups are as follows:
#
# Line 1:
#     Col. 1: Time results were received.
#     Col. 2: MD5 hash of participant's IP address.
#     Col. 3: Controller name.
#     Col. 4: Item number.
#     Col. 5: Element number.
#     Col. 6: Type.
#     Col. 7: Group.
#     Col. 8: Sentence (or sentence MD5).
# Line 2:
#     Col. 1: Time results were received.
#     Col. 2: MD5 hash of participant's IP address.
#     Col. 3: Controller name.
#     Col. 4: Item number.
#     Col. 5: Element number.
#     Col. 6: Type.
#     Col. 7: Group.
#     Col. 8: html.
#     Col. 9: startValue.
#     Col. 10: endValue.
#     Col. 11: value.
1605288441,be673d77fd235fc63631356380dbeeaa,SingleSlider,9,1,fulldep.presup,5, <br> <p>How surprised would you be if you learned that ...?</p> 
1605288441,be673d77fd235fc63631356380dbeeaa,SingleSlider,9,1,fulldep.presup,5,<b>Cece doesn't have a hoopler.</b> ,0.00,100.00,91.33
# Columns below this comment are as follows:
# 1. Time results were received.
# 2. MD5 hash of participant's IP address.
# 3. Controller name.
# 4. Item number.
# 5. Element number.
# 6. Type.
# 7. Group.
# 8. Sentence (or sentence MD5).
1605288441,be673d77fd235fc63631356380dbeeaa,SingleSlider,10,0,fulldep.ant,6,<p>Cece is an alien from this planet. Here%2C   some aliens are gogopos and some aliens are not gogopos.</p> <p>All gogopos have a hoopler. No one else has hooplers.</p> <p><b>If Cece is a gogopo%2C she will dippefy her hoopler.</b></p> 
1605288441,be673d77fd235fc63631356380dbeeaa,SingleSlider,10,0,fulldep.ant,6, <br> <p>How surprised would you be if you learned that ...?</p> 
# The lines below this comment are in groups of 2.
# The formats of the lines in each of these groups are as follows:
#
# Line 1:
#     Col. 1: Time results were received.
#     Col. 2: MD5 hash of participant's IP address.
#     Col. 3: Controller name.
#     Col. 4: Item number.
#     Col. 5: Element number.
#     Col. 6: Type.
#     Col. 7: Group.
#     Col. 8: html.
#     Col. 9: startValue.
#     Col. 10: endValue.
#     Col. 11: value.
# Line 2:
#     Col. 1: Time results were received.
#     Col. 2: MD5 hash of participant's IP address.
#     Col. 3: Controller name.
#     Col. 4: Item number.
#     Col. 5: Element number.
#     Col. 6: Type.
#     Col. 7: Group.
#     Col. 8: Field name.
#     Col. 9: Field value.
1605288441,be673d77fd235fc63631356380dbeeaa,SingleSlider,10,0,fulldep.ant,6,<b>Cece is a gogopo.</b> ,0.00,100.00,30.00
1605288441,be673d77fd235fc63631356380dbeeaa,Form,3,0,exit,NULL,comment,
# Columns below this comment are as follows:
# 1. Time results were received.
# 2. MD5 hash of participant's IP address.
# 3. Controller name.
# 4. Item number.
# 5. Element number.
# 6. Type.
# 7. Group.
# 8. Field name.
# 9. Field value.
1605288441,be673d77fd235fc63631356380dbeeaa,Form,3,0,exit,NULL,_REACTION_TIME_,2403
#
# Results on Friday November 13 2020 17:51:57 UTC.
# USER AGENT: Mozilla/5.0 (Macintosh; Intel Mac OS X 10.15; rv:81.0) Gecko/20100101 Firefox/81.0
# Design number was non-random = 2
#
# Columns below this comment are as follows:
# 1. Time results were received.
# 2. MD5 hash of participant's IP address.
# 3. Controller name.
# 4. Item number.
# 5. Element number.
# 6. Type.
# 7. Group.
# 8. Field name.
# 9. Field value.
1605289917,7678055d3bc5c50a0fe20dfd9c7764b0,Form,1,0,intro1,NULL,_REACTION_TIME_,8629
1605289917,7678055d3bc5c50a0fe20dfd9c7764b0,Form,2,0,intro2,NULL,_REACTION_TIME_,11892
1605289917,7678055d3bc5c50a0fe20dfd9c7764b0,AY_Form_inst,11,0,control.presup,7,_REACTION_TIME_,2949
# Columns below this comment are as follows:
# 1. Time results were received.
# 2. MD5 hash of participant's IP address.
# 3. Controller name.
# 4. Item number.
# 5. Element number.
# 6. Type.
# 7. Group.
# 8. Sentence (or sentence MD5).
1605289917,7678055d3bc5c50a0fe20dfd9c7764b0,SingleSlider,11,1,control.presup,7,<p>Eva is an alien from this planet. Here%2C some aliens are fleppers and some aliens are not fleppers.</p> <p>Most of the fleppers have a lammor.</p> <p><b>Eva is a flepper%2C and she has a lammor.</b></p> 
1605289917,7678055d3bc5c50a0fe20dfd9c7764b0,SingleSlider,11,1,control.presup,7, <br> <p>How surprised would you be if you learned that ...?</p> 
# The lines below this comment are in groups of 2.
# The formats of the lines in each of these groups are as follows:
#
# Line 1:
#     Col. 1: Time results were received.
#     Col. 2: MD5 hash of participant's IP address.
#     Col. 3: Controller name.
#     Col. 4: Item number.
#     Col. 5: Element number.
#     Col. 6: Type.
#     Col. 7: Group.
#     Col. 8: html.
#     Col. 9: startValue.
#     Col. 10: endValue.
#     Col. 11: value.
# Line 2:
#     Col. 1: Time results were received.
#     Col. 2: MD5 hash of participant's IP address.
#     Col. 3: Controller name.
#     Col. 4: Item number.
#     Col. 5: Element number.
#     Col. 6: Type.
#     Col. 7: Group.
#     Col. 8: Sentence (or sentence MD5).
1605289917,7678055d3bc5c50a0fe20dfd9c7764b0,SingleSlider,11,1,control.presup,7,<b>Eva doesn't have a lammor.</b> ,0.00,100.00,100.00
1605289917,7678055d3bc5c50a0fe20dfd9c7764b0,SingleSlider,12,0,control.ant,8,<p>Eva is an alien from this planet. Here%2C  some aliens are fleppers and some aliens are not fleppers.</p> <p>Most of the fleppers have a lammor.</p> <p><b>Eva is a flepper%2C and she has a lammor.</b></p> 
# The lines below this comment are in groups of 2.
# The formats of the lines in each of these groups are as follows:
#
# Line 1:
#     Col. 1: Time results were received.
#     Col. 2: MD5 hash of participant's IP address.
#     Col. 3: Controller name.
#     Col. 4: Item number.
#     Col. 5: Element number.
#     Col. 6: Type.
#     Col. 7: Group.
#     Col. 8: Sentence (or sentence MD5).
# Line 2:
#     Col. 1: Time results were received.
#     Col. 2: MD5 hash of participant's IP address.
#     Col. 3: Controller name.
#     Col. 4: Item number.
#     Col. 5: Element number.
#     Col. 6: Type.
#     Col. 7: Group.
#     Col. 8: html.
#     Col. 9: startValue.
#     Col. 10: endValue.
#     Col. 11: value.
1605289917,7678055d3bc5c50a0fe20dfd9c7764b0,SingleSlider,12,0,control.ant,8, <br> <p>How surprised would you be if you learned that ...?</p> 
1605289917,7678055d3bc5c50a0fe20dfd9c7764b0,SingleSlider,12,0,control.ant,8,<b>Eva is a flepper.</b> ,0.00,100.00,0.00
# The lines below this comment are in groups of 2.
# The formats of the lines in each of these groups are as follows:
#
# Line 1:
#     Col. 1: Time results were received.
#     Col. 2: MD5 hash of participant's IP address.
#     Col. 3: Controller name.
#     Col. 4: Item number.
#     Col. 5: Element number.
#     Col. 6: Type.
#     Col. 7: Group.
#     Col. 8: Field name.
#     Col. 9: Field value.
# Line 2:
#     Col. 1: Time results were received.
#     Col. 2: MD5 hash of participant's IP address.
#     Col. 3: Controller name.
#     Col. 4: Item number.
#     Col. 5: Element number.
#     Col. 6: Type.
#     Col. 7: Group.
#     Col. 8: Sentence (or sentence MD5).
1605289917,7678055d3bc5c50a0fe20dfd9c7764b0,AY_Form_inst,5,0,independent.presup,1,_REACTION_TIME_,2514
1605289917,7678055d3bc5c50a0fe20dfd9c7764b0,SingleSlider,5,1,independent.presup,1,<p>Ann is an alien from this planet. Here%2C some aliens are glorps and some aliens are not glorps.</p> <p>Some of the aliens have dords%2C but it doesn’t matter whether they’re glorps or not.</p> <p><b>If Ann is a glorp%2C she will yapple her dord.</b></p> 
# The lines below this comment are in groups of 2.
# The formats of the lines in each of these groups are as follows:
#
# Line 1:
#     Col. 1: Time results were received.
#     Col. 2: MD5 hash of participant's IP address.
#     Col. 3: Controller name.
#     Col. 4: Item number.
#     Col. 5: Element number.
#     Col. 6: Type.
#     Col. 7: Group.
#     Col. 8: Sentence (or sentence MD5).
# Line 2:
#     Col. 1: Time results were received.
#     Col. 2: MD5 hash of participant's IP address.
#     Col. 3: Controller name.
#     Col. 4: Item number.
#     Col. 5: Element number.
#     Col. 6: Type.
#     Col. 7: Group.
#     Col. 8: html.
#     Col. 9: startValue.
#     Col. 10: endValue.
#     Col. 11: value.
1605289917,7678055d3bc5c50a0fe20dfd9c7764b0,SingleSlider,5,1,independent.presup,1, <br> <p>How surprised would you be if you learned that ...?</p> 
1605289917,7678055d3bc5c50a0fe20dfd9c7764b0,SingleSlider,5,1,independent.presup,1,<b>Ann doesn't have a dord.</b> ,0.00,100.00,9.67
# Columns below this comment are as follows:
# 1. Time results were received.
# 2. MD5 hash of participant's IP address.
# 3. Controller name.
# 4. Item number.
# 5. Element number.
# 6. Type.
# 7. Group.
# 8. Sentence (or sentence MD5).
1605289917,7678055d3bc5c50a0fe20dfd9c7764b0,SingleSlider,6,0,independent.ant,2,<p>Ann is an alien from this planet. Here%2C some aliens are glorps and some aliens are not glorps.</p> <p>Some of the aliens here have dords%2C but it doesn’t matter whether they’re glorps or not.</p> <p><b>If Ann is a glorp%2C she will yapple her dord.</b></p> 
1605289917,7678055d3bc5c50a0fe20dfd9c7764b0,SingleSlider,6,0,independent.ant,2, <br> <p>How surprised would you be if you learned that ...?</p> 
# The lines below this comment are in groups of 2.
# The formats of the lines in each of these groups are as follows:
#
# Line 1:
#     Col. 1: Time results were received.
#     Col. 2: MD5 hash of participant's IP address.
#     Col. 3: Controller name.
#     Col. 4: Item number.
#     Col. 5: Element number.
#     Col. 6: Type.
#     Col. 7: Group.
#     Col. 8: html.
#     Col. 9: startValue.
#     Col. 10: endValue.
#     Col. 11: value.
# Line 2:
#     Col. 1: Time results were received.
#     Col. 2: MD5 hash of participant's IP address.
#     Col. 3: Controller name.
#     Col. 4: Item number.
#     Col. 5: Element number.
#     Col. 6: Type.
#     Col. 7: Group.
#     Col. 8: Field name.
#     Col. 9: Field value.
1605289917,7678055d3bc5c50a0fe20dfd9c7764b0,SingleSlider,6,0,independent.ant,2,<b>Ann is a glorp.</b> ,0.00,100.00,30.33
1605289917,7678055d3bc5c50a0fe20dfd9c7764b0,AY_Form_inst,7,0,dependent.presup,3,_REACTION_TIME_,1786
# Columns below this comment are as follows:
# 1. Time results were received.
# 2. MD5 hash of participant's IP address.
# 3. Controller name.
# 4. Item number.
# 5. Element number.
# 6. Type.
# 7. Group.
# 8. Sentence (or sentence MD5).
1605289917,7678055d3bc5c50a0fe20dfd9c7764b0,SingleSlider,7,1,dependent.presup,3,<p>Bea is an alien from this planet. Here%2C some aliens are morties and some aliens are not morties.</p> <p>Half of the morties have a lealo. No one else has lealos.</p> <p><b>If Bea is a mortie%2C she will wegget her lealo.</b></p> 
1605289917,7678055d3bc5c50a0fe20dfd9c7764b0,SingleSlider,7,1,dependent.presup,3, <br> <p>How surprised would you be if you learned that ...?</p> 
# The lines below this comment are in groups of 2.
# The formats of the lines in each of these groups are as follows:
#
# Line 1:
#     Col. 1: Time results were received.
#     Col. 2: MD5 hash of participant's IP address.
#     Col. 3: Controller name.
#     Col. 4: Item number.
#     Col. 5: Element number.
#     Col. 6: Type.
#     Col. 7: Group.
#     Col. 8: html.
#     Col. 9: startValue.
#     Col. 10: endValue.
#     Col. 11: value.
# Line 2:
#     Col. 1: Time results were received.
#     Col. 2: MD5 hash of participant's IP address.
#     Col. 3: Controller name.
#     Col. 4: Item number.
#     Col. 5: Element number.
#     Col. 6: Type.
#     Col. 7: Group.
#     Col. 8: Sentence (or sentence MD5).
1605289917,7678055d3bc5c50a0fe20dfd9c7764b0,SingleSlider,7,1,dependent.presup,3,<b>Bea doesn't have a lealo.</b> ,0.00,100.00,9.67
1605289917,7678055d3bc5c50a0fe20dfd9c7764b0,SingleSlider,8,0,dependent.ant,4,<p>Bea is an alien from this planet. Here%2C some morties and some aliens are not morties.</p> <p>Half of the morties have a lealo. No one else has lealos.</p> <p><b>If Bea is a mortie%2C she will wegget her lealo.</b></p> 
# The lines below this comment are in groups of 2.
# The formats of the lines in each of these groups are as follows:
#
# Line 1:
#     Col. 1: Time results were received.
#     Col. 2: MD5 hash of participant's IP address.
#     Col. 3: Controller name.
#     Col. 4: Item number.
#     Col. 5: Element number.
#     Col. 6: Type.
#     Col. 7: Group.
#     Col. 8: Sentence (or sentence MD5).
# Line 2:
#     Col. 1: Time results were received.
#     Col. 2: MD5 hash of participant's IP address.
#     Col. 3: Controller name.
#     Col. 4: Item number.
#     Col. 5: Element number.
#     Col. 6: Type.
#     Col. 7: Group.
#     Col. 8: html.
#     Col. 9: startValue.
#     Col. 10: endValue.
#     Col. 11: value.
1605289917,7678055d3bc5c50a0fe20dfd9c7764b0,SingleSlider,8,0,dependent.ant,4, <br> <p>How surprised would you be if you learned that ...?</p> 
1605289917,7678055d3bc5c50a0fe20dfd9c7764b0,SingleSlider,8,0,dependent.ant,4,<b>Bea is a mortie. </b>,0.00,100.00,10.67
# The lines below this comment are in groups of 2.
# The formats of the lines in each of these groups are as follows:
#
# Line 1:
#     Col. 1: Time results were received.
#     Col. 2: MD5 hash of participant's IP address.
#     Col. 3: Controller name.
#     Col. 4: Item number.
#     Col. 5: Element number.
#     Col. 6: Type.
#     Col. 7: Group.
#     Col. 8: Field name.
#     Col. 9: Field value.
# Line 2:
#     Col. 1: Time results were received.
#     Col. 2: MD5 hash of participant's IP address.
#     Col. 3: Controller name.
#     Col. 4: Item number.
#     Col. 5: Element number.
#     Col. 6: Type.
#     Col. 7: Group.
#     Col. 8: Sentence (or sentence MD5).
1605289917,7678055d3bc5c50a0fe20dfd9c7764b0,AY_Form_inst,9,0,fulldep.presup,5,_REACTION_TIME_,1650
1605289917,7678055d3bc5c50a0fe20dfd9c7764b0,SingleSlider,9,1,fulldep.presup,5,<p>Cece is an alien from this planet. Here%2C some aliens are gogopos and some aliens are not gogopos.</p> <p>All gogopos have a hoopler. No one else has hooplers.</p> <p><b>If Cece is a gogopo%2C she will dippefy her hoopler.</b></p> 
# The lines below this comment are in groups of 2.
# The formats of the lines in each of these groups are as follows:
#
# Line 1:
#     Col. 1: Time results were received.
#     Col. 2: MD5 hash of participant's IP address.
#     Col. 3: Controller name.
#     Col. 4: Item number.
#     Col. 5: Element number.
#     Col. 6: Type.
#     Col. 7: Group.
#     Col. 8: Sentence (or sentence MD5).
# Line 2:
#     Col. 1: Time results were received.
#     Col. 2: MD5 hash of participant's IP address.
#     Col. 3: Controller name.
#     Col. 4: Item number.
#     Col. 5: Element number.
#     Col. 6: Type.
#     Col. 7: Group.
#     Col. 8: html.
#     Col. 9: startValue.
#     Col. 10: endValue.
#     Col. 11: value.
1605289917,7678055d3bc5c50a0fe20dfd9c7764b0,SingleSlider,9,1,fulldep.presup,5, <br> <p>How surprised would you be if you learned that ...?</p> 
1605289917,7678055d3bc5c50a0fe20dfd9c7764b0,SingleSlider,9,1,fulldep.presup,5,<b>Cece doesn't have a hoopler.</b> ,0.00,100.00,10.00
# Columns below this comment are as follows:
# 1. Time results were received.
# 2. MD5 hash of participant's IP address.
# 3. Controller name.
# 4. Item number.
# 5. Element number.
# 6. Type.
# 7. Group.
# 8. Sentence (or sentence MD5).
1605289917,7678055d3bc5c50a0fe20dfd9c7764b0,SingleSlider,10,0,fulldep.ant,6,<p>Cece is an alien from this planet. Here%2C   some aliens are gogopos and some aliens are not gogopos.</p> <p>All gogopos have a hoopler. No one else has hooplers.</p> <p><b>If Cece is a gogopo%2C she will dippefy her hoopler.</b></p> 
1605289917,7678055d3bc5c50a0fe20dfd9c7764b0,SingleSlider,10,0,fulldep.ant,6, <br> <p>How surprised would you be if you learned that ...?</p> 
# The lines below this comment are in groups of 2.
# The formats of the lines in each of these groups are as follows:
#
# Line 1:
#     Col. 1: Time results were received.
#     Col. 2: MD5 hash of participant's IP address.
#     Col. 3: Controller name.
#     Col. 4: Item number.
#     Col. 5: Element number.
#     Col. 6: Type.
#     Col. 7: Group.
#     Col. 8: html.
#     Col. 9: startValue.
#     Col. 10: endValue.
#     Col. 11: value.
# Line 2:
#     Col. 1: Time results were received.
#     Col. 2: MD5 hash of participant's IP address.
#     Col. 3: Controller name.
#     Col. 4: Item number.
#     Col. 5: Element number.
#     Col. 6: Type.
#     Col. 7: Group.
#     Col. 8: Field name.
#     Col. 9: Field value.
1605289917,7678055d3bc5c50a0fe20dfd9c7764b0,SingleSlider,10,0,fulldep.ant,6,<b>Cece is a gogopo.</b> ,0.00,100.00,10.33
1605289917,7678055d3bc5c50a0fe20dfd9c7764b0,Form,3,0,exit,NULL,comment,cute drawings!
# Columns below this comment are as follows:
# 1. Time results were received.
# 2. MD5 hash of participant's IP address.
# 3. Controller name.
# 4. Item number.
# 5. Element number.
# 6. Type.
# 7. Group.
# 8. Field name.
# 9. Field value.
1605289917,7678055d3bc5c50a0fe20dfd9c7764b0,Form,3,0,exit,NULL,_REACTION_TIME_,5162
#
# Results on Friday November 13 2020 18:37:31 UTC.
# USER AGENT: Mozilla/5.0 (Macintosh; Intel Mac OS X 10_13_6) AppleWebKit/537.36 (KHTML, like Gecko) Chrome/86.0.4240.193 Safari/537.36
# Design number was non-random = 3
#
# Columns below this comment are as follows:
# 1. Time results were received.
# 2. MD5 hash of participant's IP address.
# 3. Controller name.
# 4. Item number.
# 5. Element number.
# 6. Type.
# 7. Group.
# 8. Field name.
# 9. Field value.
1605292652,70fd1b854260ff6a47ef820c42cdc7b9,Form,1,0,intro1,NULL,_REACTION_TIME_,11730
1605292652,70fd1b854260ff6a47ef820c42cdc7b9,Form,2,0,intro2,NULL,_REACTION_TIME_,23514
1605292652,70fd1b854260ff6a47ef820c42cdc7b9,AY_Form_inst,11,0,control.presup,7,_REACTION_TIME_,3765
# Columns below this comment are as follows:
# 1. Time results were received.
# 2. MD5 hash of participant's IP address.
# 3. Controller name.
# 4. Item number.
# 5. Element number.
# 6. Type.
# 7. Group.
# 8. Sentence (or sentence MD5).
1605292652,70fd1b854260ff6a47ef820c42cdc7b9,SingleSlider,11,1,control.presup,7,<p>Eva is an alien from this planet. Here%2C some aliens are fleppers and some aliens are not fleppers.</p> <p>Most of the fleppers have a lammor.</p> <p><b>Eva is a flepper%2C and she has a lammor.</b></p> 
1605292652,70fd1b854260ff6a47ef820c42cdc7b9,SingleSlider,11,1,control.presup,7, <br> <p>How surprised would you be if you learned that ...?</p> 
# The lines below this comment are in groups of 2.
# The formats of the lines in each of these groups are as follows:
#
# Line 1:
#     Col. 1: Time results were received.
#     Col. 2: MD5 hash of participant's IP address.
#     Col. 3: Controller name.
#     Col. 4: Item number.
#     Col. 5: Element number.
#     Col. 6: Type.
#     Col. 7: Group.
#     Col. 8: html.
#     Col. 9: startValue.
#     Col. 10: endValue.
#     Col. 11: value.
# Line 2:
#     Col. 1: Time results were received.
#     Col. 2: MD5 hash of participant's IP address.
#     Col. 3: Controller name.
#     Col. 4: Item number.
#     Col. 5: Element number.
#     Col. 6: Type.
#     Col. 7: Group.
#     Col. 8: Sentence (or sentence MD5).
1605292652,70fd1b854260ff6a47ef820c42cdc7b9,SingleSlider,11,1,control.presup,7,<b>Eva doesn't have a lammor.</b> ,0.00,100.00,100.00
1605292652,70fd1b854260ff6a47ef820c42cdc7b9,SingleSlider,12,0,control.ant,8,<p>Eva is an alien from this planet. Here%2C  some aliens are fleppers and some aliens are not fleppers.</p> <p>Most of the fleppers have a lammor.</p> <p><b>Eva is a flepper%2C and she has a lammor.</b></p> 
# The lines below this comment are in groups of 2.
# The formats of the lines in each of these groups are as follows:
#
# Line 1:
#     Col. 1: Time results were received.
#     Col. 2: MD5 hash of participant's IP address.
#     Col. 3: Controller name.
#     Col. 4: Item number.
#     Col. 5: Element number.
#     Col. 6: Type.
#     Col. 7: Group.
#     Col. 8: Sentence (or sentence MD5).
# Line 2:
#     Col. 1: Time results were received.
#     Col. 2: MD5 hash of participant's IP address.
#     Col. 3: Controller name.
#     Col. 4: Item number.
#     Col. 5: Element number.
#     Col. 6: Type.
#     Col. 7: Group.
#     Col. 8: html.
#     Col. 9: startValue.
#     Col. 10: endValue.
#     Col. 11: value.
1605292652,70fd1b854260ff6a47ef820c42cdc7b9,SingleSlider,12,0,control.ant,8, <br> <p>How surprised would you be if you learned that ...?</p> 
1605292652,70fd1b854260ff6a47ef820c42cdc7b9,SingleSlider,12,0,control.ant,8,<b>Eva is a flepper.</b> ,0.00,100.00,0.00
# The lines below this comment are in groups of 2.
# The formats of the lines in each of these groups are as follows:
#
# Line 1:
#     Col. 1: Time results were received.
#     Col. 2: MD5 hash of participant's IP address.
#     Col. 3: Controller name.
#     Col. 4: Item number.
#     Col. 5: Element number.
#     Col. 6: Type.
#     Col. 7: Group.
#     Col. 8: Field name.
#     Col. 9: Field value.
# Line 2:
#     Col. 1: Time results were received.
#     Col. 2: MD5 hash of participant's IP address.
#     Col. 3: Controller name.
#     Col. 4: Item number.
#     Col. 5: Element number.
#     Col. 6: Type.
#     Col. 7: Group.
#     Col. 8: Sentence (or sentence MD5).
1605292652,70fd1b854260ff6a47ef820c42cdc7b9,AY_Form_inst,5,0,independent.presup,1,_REACTION_TIME_,3200
1605292652,70fd1b854260ff6a47ef820c42cdc7b9,SingleSlider,5,1,independent.presup,1,<p>Ann is an alien from this planet. Here%2C some aliens are glorps and some aliens are not glorps.</p> <p>Some of the aliens have dords%2C but it doesn’t matter whether they’re glorps or not.</p> <p><b>If Ann is a glorp%2C she will yapple her dord.</b></p> 
# The lines below this comment are in groups of 2.
# The formats of the lines in each of these groups are as follows:
#
# Line 1:
#     Col. 1: Time results were received.
#     Col. 2: MD5 hash of participant's IP address.
#     Col. 3: Controller name.
#     Col. 4: Item number.
#     Col. 5: Element number.
#     Col. 6: Type.
#     Col. 7: Group.
#     Col. 8: Sentence (or sentence MD5).
# Line 2:
#     Col. 1: Time results were received.
#     Col. 2: MD5 hash of participant's IP address.
#     Col. 3: Controller name.
#     Col. 4: Item number.
#     Col. 5: Element number.
#     Col. 6: Type.
#     Col. 7: Group.
#     Col. 8: html.
#     Col. 9: startValue.
#     Col. 10: endValue.
#     Col. 11: value.
1605292652,70fd1b854260ff6a47ef820c42cdc7b9,SingleSlider,5,1,independent.presup,1, <br> <p>How surprised would you be if you learned that ...?</p> 
1605292652,70fd1b854260ff6a47ef820c42cdc7b9,SingleSlider,5,1,independent.presup,1,<b>Ann doesn't have a dord.</b> ,0.00,100.00,0.00
# Columns below this comment are as follows:
# 1. Time results were received.
# 2. MD5 hash of participant's IP address.
# 3. Controller name.
# 4. Item number.
# 5. Element number.
# 6. Type.
# 7. Group.
# 8. Sentence (or sentence MD5).
1605292652,70fd1b854260ff6a47ef820c42cdc7b9,SingleSlider,6,0,independent.ant,2,<p>Ann is an alien from this planet. Here%2C some aliens are glorps and some aliens are not glorps.</p> <p>Some of the aliens here have dords%2C but it doesn’t matter whether they’re glorps or not.</p> <p><b>If Ann is a glorp%2C she will yapple her dord.</b></p> 
1605292652,70fd1b854260ff6a47ef820c42cdc7b9,SingleSlider,6,0,independent.ant,2, <br> <p>How surprised would you be if you learned that ...?</p> 
# The lines below this comment are in groups of 2.
# The formats of the lines in each of these groups are as follows:
#
# Line 1:
#     Col. 1: Time results were received.
#     Col. 2: MD5 hash of participant's IP address.
#     Col. 3: Controller name.
#     Col. 4: Item number.
#     Col. 5: Element number.
#     Col. 6: Type.
#     Col. 7: Group.
#     Col. 8: html.
#     Col. 9: startValue.
#     Col. 10: endValue.
#     Col. 11: value.
# Line 2:
#     Col. 1: Time results were received.
#     Col. 2: MD5 hash of participant's IP address.
#     Col. 3: Controller name.
#     Col. 4: Item number.
#     Col. 5: Element number.
#     Col. 6: Type.
#     Col. 7: Group.
#     Col. 8: Field name.
#     Col. 9: Field value.
1605292652,70fd1b854260ff6a47ef820c42cdc7b9,SingleSlider,6,0,independent.ant,2,<b>Ann is a glorp.</b> ,0.00,100.00,0.00
1605292652,70fd1b854260ff6a47ef820c42cdc7b9,AY_Form_inst,7,0,dependent.presup,3,_REACTION_TIME_,1614
# Columns below this comment are as follows:
# 1. Time results were received.
# 2. MD5 hash of participant's IP address.
# 3. Controller name.
# 4. Item number.
# 5. Element number.
# 6. Type.
# 7. Group.
# 8. Sentence (or sentence MD5).
1605292652,70fd1b854260ff6a47ef820c42cdc7b9,SingleSlider,7,1,dependent.presup,3,<p>Bea is an alien from this planet. Here%2C some aliens are morties and some aliens are not morties.</p> <p>Half of the morties have a lealo. No one else has lealos.</p> <p><b>If Bea is a mortie%2C she will wegget her lealo.</b></p> 
1605292652,70fd1b854260ff6a47ef820c42cdc7b9,SingleSlider,7,1,dependent.presup,3, <br> <p>How surprised would you be if you learned that ...?</p> 
# The lines below this comment are in groups of 2.
# The formats of the lines in each of these groups are as follows:
#
# Line 1:
#     Col. 1: Time results were received.
#     Col. 2: MD5 hash of participant's IP address.
#     Col. 3: Controller name.
#     Col. 4: Item number.
#     Col. 5: Element number.
#     Col. 6: Type.
#     Col. 7: Group.
#     Col. 8: html.
#     Col. 9: startValue.
#     Col. 10: endValue.
#     Col. 11: value.
# Line 2:
#     Col. 1: Time results were received.
#     Col. 2: MD5 hash of participant's IP address.
#     Col. 3: Controller name.
#     Col. 4: Item number.
#     Col. 5: Element number.
#     Col. 6: Type.
#     Col. 7: Group.
#     Col. 8: Sentence (or sentence MD5).
1605292652,70fd1b854260ff6a47ef820c42cdc7b9,SingleSlider,7,1,dependent.presup,3,<b>Bea doesn't have a lealo.</b> ,0.00,100.00,0.00
1605292652,70fd1b854260ff6a47ef820c42cdc7b9,SingleSlider,8,0,dependent.ant,4,<p>Bea is an alien from this planet. Here%2C some morties and some aliens are not morties.</p> <p>Half of the morties have a lealo. No one else has lealos.</p> <p><b>If Bea is a mortie%2C she will wegget her lealo.</b></p> 
# The lines below this comment are in groups of 2.
# The formats of the lines in each of these groups are as follows:
#
# Line 1:
#     Col. 1: Time results were received.
#     Col. 2: MD5 hash of participant's IP address.
#     Col. 3: Controller name.
#     Col. 4: Item number.
#     Col. 5: Element number.
#     Col. 6: Type.
#     Col. 7: Group.
#     Col. 8: Sentence (or sentence MD5).
# Line 2:
#     Col. 1: Time results were received.
#     Col. 2: MD5 hash of participant's IP address.
#     Col. 3: Controller name.
#     Col. 4: Item number.
#     Col. 5: Element number.
#     Col. 6: Type.
#     Col. 7: Group.
#     Col. 8: html.
#     Col. 9: startValue.
#     Col. 10: endValue.
#     Col. 11: value.
1605292652,70fd1b854260ff6a47ef820c42cdc7b9,SingleSlider,8,0,dependent.ant,4, <br> <p>How surprised would you be if you learned that ...?</p> 
1605292652,70fd1b854260ff6a47ef820c42cdc7b9,SingleSlider,8,0,dependent.ant,4,<b>Bea is a mortie. </b>,0.00,100.00,0.00
# The lines below this comment are in groups of 2.
# The formats of the lines in each of these groups are as follows:
#
# Line 1:
#     Col. 1: Time results were received.
#     Col. 2: MD5 hash of participant's IP address.
#     Col. 3: Controller name.
#     Col. 4: Item number.
#     Col. 5: Element number.
#     Col. 6: Type.
#     Col. 7: Group.
#     Col. 8: Field name.
#     Col. 9: Field value.
# Line 2:
#     Col. 1: Time results were received.
#     Col. 2: MD5 hash of participant's IP address.
#     Col. 3: Controller name.
#     Col. 4: Item number.
#     Col. 5: Element number.
#     Col. 6: Type.
#     Col. 7: Group.
#     Col. 8: Sentence (or sentence MD5).
1605292652,70fd1b854260ff6a47ef820c42cdc7b9,AY_Form_inst,9,0,fulldep.presup,5,_REACTION_TIME_,1512
1605292652,70fd1b854260ff6a47ef820c42cdc7b9,SingleSlider,9,1,fulldep.presup,5,<p>Cece is an alien from this planet. Here%2C some aliens are gogopos and some aliens are not gogopos.</p> <p>All gogopos have a hoopler. No one else has hooplers.</p> <p><b>If Cece is a gogopo%2C she will dippefy her hoopler.</b></p> 
# The lines below this comment are in groups of 2.
# The formats of the lines in each of these groups are as follows:
#
# Line 1:
#     Col. 1: Time results were received.
#     Col. 2: MD5 hash of participant's IP address.
#     Col. 3: Controller name.
#     Col. 4: Item number.
#     Col. 5: Element number.
#     Col. 6: Type.
#     Col. 7: Group.
#     Col. 8: Sentence (or sentence MD5).
# Line 2:
#     Col. 1: Time results were received.
#     Col. 2: MD5 hash of participant's IP address.
#     Col. 3: Controller name.
#     Col. 4: Item number.
#     Col. 5: Element number.
#     Col. 6: Type.
#     Col. 7: Group.
#     Col. 8: html.
#     Col. 9: startValue.
#     Col. 10: endValue.
#     Col. 11: value.
1605292652,70fd1b854260ff6a47ef820c42cdc7b9,SingleSlider,9,1,fulldep.presup,5, <br> <p>How surprised would you be if you learned that ...?</p> 
1605292652,70fd1b854260ff6a47ef820c42cdc7b9,SingleSlider,9,1,fulldep.presup,5,<b>Cece doesn't have a hoopler.</b> ,0.00,100.00,0.00
# Columns below this comment are as follows:
# 1. Time results were received.
# 2. MD5 hash of participant's IP address.
# 3. Controller name.
# 4. Item number.
# 5. Element number.
# 6. Type.
# 7. Group.
# 8. Sentence (or sentence MD5).
1605292652,70fd1b854260ff6a47ef820c42cdc7b9,SingleSlider,10,0,fulldep.ant,6,<p>Cece is an alien from this planet. Here%2C   some aliens are gogopos and some aliens are not gogopos.</p> <p>All gogopos have a hoopler. No one else has hooplers.</p> <p><b>If Cece is a gogopo%2C she will dippefy her hoopler.</b></p> 
1605292652,70fd1b854260ff6a47ef820c42cdc7b9,SingleSlider,10,0,fulldep.ant,6, <br> <p>How surprised would you be if you learned that ...?</p> 
# The lines below this comment are in groups of 2.
# The formats of the lines in each of these groups are as follows:
#
# Line 1:
#     Col. 1: Time results were received.
#     Col. 2: MD5 hash of participant's IP address.
#     Col. 3: Controller name.
#     Col. 4: Item number.
#     Col. 5: Element number.
#     Col. 6: Type.
#     Col. 7: Group.
#     Col. 8: html.
#     Col. 9: startValue.
#     Col. 10: endValue.
#     Col. 11: value.
# Line 2:
#     Col. 1: Time results were received.
#     Col. 2: MD5 hash of participant's IP address.
#     Col. 3: Controller name.
#     Col. 4: Item number.
#     Col. 5: Element number.
#     Col. 6: Type.
#     Col. 7: Group.
#     Col. 8: Field name.
#     Col. 9: Field value.
1605292652,70fd1b854260ff6a47ef820c42cdc7b9,SingleSlider,10,0,fulldep.ant,6,<b>Cece is a gogopo.</b> ,0.00,100.00,0.00
1605292652,70fd1b854260ff6a47ef820c42cdc7b9,Form,3,0,exit,NULL,comment,
# Columns below this comment are as follows:
# 1. Time results were received.
# 2. MD5 hash of participant's IP address.
# 3. Controller name.
# 4. Item number.
# 5. Element number.
# 6. Type.
# 7. Group.
# 8. Field name.
# 9. Field value.
1605292652,70fd1b854260ff6a47ef820c42cdc7b9,Form,3,0,exit,NULL,_REACTION_TIME_,14193
#
# Results on Friday November 13 2020 19:40:27 UTC.
# USER AGENT: Mozilla/5.0 (Macintosh; Intel Mac OS X 10_15_7) AppleWebKit/537.36 (KHTML, like Gecko) Chrome/86.0.4240.183 Safari/537.36
# Design number was non-random = 4
#
# Columns below this comment are as follows:
# 1. Time results were received.
# 2. MD5 hash of participant's IP address.
# 3. Controller name.
# 4. Item number.
# 5. Element number.
# 6. Type.
# 7. Group.
# 8. Field name.
# 9. Field value.
1605296427,8ac26fb0caa8c6eb7d5efc1d63742c27,Form,1,0,intro1,NULL,_REACTION_TIME_,14721
1605296427,8ac26fb0caa8c6eb7d5efc1d63742c27,Form,2,0,intro2,NULL,_REACTION_TIME_,11975
1605296427,8ac26fb0caa8c6eb7d5efc1d63742c27,AY_Form_inst,11,0,control.presup,7,_REACTION_TIME_,3769
# Columns below this comment are as follows:
# 1. Time results were received.
# 2. MD5 hash of participant's IP address.
# 3. Controller name.
# 4. Item number.
# 5. Element number.
# 6. Type.
# 7. Group.
# 8. Sentence (or sentence MD5).
1605296427,8ac26fb0caa8c6eb7d5efc1d63742c27,SingleSlider,11,1,control.presup,7,<p>Eva is an alien from this planet. Here%2C some aliens are fleppers and some aliens are not fleppers.</p> <p>Most of the fleppers have a lammor.</p> <p><b>Eva is a flepper%2C and she has a lammor.</b></p> 
1605296427,8ac26fb0caa8c6eb7d5efc1d63742c27,SingleSlider,11,1,control.presup,7, <br> <p>How surprised would you be if you learned that ...?</p> 
# The lines below this comment are in groups of 2.
# The formats of the lines in each of these groups are as follows:
#
# Line 1:
#     Col. 1: Time results were received.
#     Col. 2: MD5 hash of participant's IP address.
#     Col. 3: Controller name.
#     Col. 4: Item number.
#     Col. 5: Element number.
#     Col. 6: Type.
#     Col. 7: Group.
#     Col. 8: html.
#     Col. 9: startValue.
#     Col. 10: endValue.
#     Col. 11: value.
# Line 2:
#     Col. 1: Time results were received.
#     Col. 2: MD5 hash of participant's IP address.
#     Col. 3: Controller name.
#     Col. 4: Item number.
#     Col. 5: Element number.
#     Col. 6: Type.
#     Col. 7: Group.
#     Col. 8: Sentence (or sentence MD5).
1605296427,8ac26fb0caa8c6eb7d5efc1d63742c27,SingleSlider,11,1,control.presup,7,<b>Eva doesn't have a lammor.</b> ,0.00,100.00,64.00
1605296427,8ac26fb0caa8c6eb7d5efc1d63742c27,SingleSlider,12,0,control.ant,8,<p>Eva is an alien from this planet. Here%2C  some aliens are fleppers and some aliens are not fleppers.</p> <p>Most of the fleppers have a lammor.</p> <p><b>Eva is a flepper%2C and she has a lammor.</b></p> 
# The lines below this comment are in groups of 2.
# The formats of the lines in each of these groups are as follows:
#
# Line 1:
#     Col. 1: Time results were received.
#     Col. 2: MD5 hash of participant's IP address.
#     Col. 3: Controller name.
#     Col. 4: Item number.
#     Col. 5: Element number.
#     Col. 6: Type.
#     Col. 7: Group.
#     Col. 8: Sentence (or sentence MD5).
# Line 2:
#     Col. 1: Time results were received.
#     Col. 2: MD5 hash of participant's IP address.
#     Col. 3: Controller name.
#     Col. 4: Item number.
#     Col. 5: Element number.
#     Col. 6: Type.
#     Col. 7: Group.
#     Col. 8: html.
#     Col. 9: startValue.
#     Col. 10: endValue.
#     Col. 11: value.
1605296427,8ac26fb0caa8c6eb7d5efc1d63742c27,SingleSlider,12,0,control.ant,8, <br> <p>How surprised would you be if you learned that ...?</p> 
1605296427,8ac26fb0caa8c6eb7d5efc1d63742c27,SingleSlider,12,0,control.ant,8,<b>Eva is a flepper.</b> ,0.00,100.00,0.00
# The lines below this comment are in groups of 2.
# The formats of the lines in each of these groups are as follows:
#
# Line 1:
#     Col. 1: Time results were received.
#     Col. 2: MD5 hash of participant's IP address.
#     Col. 3: Controller name.
#     Col. 4: Item number.
#     Col. 5: Element number.
#     Col. 6: Type.
#     Col. 7: Group.
#     Col. 8: Field name.
#     Col. 9: Field value.
# Line 2:
#     Col. 1: Time results were received.
#     Col. 2: MD5 hash of participant's IP address.
#     Col. 3: Controller name.
#     Col. 4: Item number.
#     Col. 5: Element number.
#     Col. 6: Type.
#     Col. 7: Group.
#     Col. 8: Sentence (or sentence MD5).
1605296427,8ac26fb0caa8c6eb7d5efc1d63742c27,AY_Form_inst,5,0,independent.presup,1,_REACTION_TIME_,3327
1605296427,8ac26fb0caa8c6eb7d5efc1d63742c27,SingleSlider,5,1,independent.presup,1,<p>Ann is an alien from this planet. Here%2C some aliens are glorps and some aliens are not glorps.</p> <p>Some of the aliens have dords%2C but it doesn’t matter whether they’re glorps or not.</p> <p><b>If Ann is a glorp%2C she will yapple her dord.</b></p> 
# The lines below this comment are in groups of 2.
# The formats of the lines in each of these groups are as follows:
#
# Line 1:
#     Col. 1: Time results were received.
#     Col. 2: MD5 hash of participant's IP address.
#     Col. 3: Controller name.
#     Col. 4: Item number.
#     Col. 5: Element number.
#     Col. 6: Type.
#     Col. 7: Group.
#     Col. 8: Sentence (or sentence MD5).
# Line 2:
#     Col. 1: Time results were received.
#     Col. 2: MD5 hash of participant's IP address.
#     Col. 3: Controller name.
#     Col. 4: Item number.
#     Col. 5: Element number.
#     Col. 6: Type.
#     Col. 7: Group.
#     Col. 8: html.
#     Col. 9: startValue.
#     Col. 10: endValue.
#     Col. 11: value.
1605296427,8ac26fb0caa8c6eb7d5efc1d63742c27,SingleSlider,5,1,independent.presup,1, <br> <p>How surprised would you be if you learned that ...?</p> 
1605296427,8ac26fb0caa8c6eb7d5efc1d63742c27,SingleSlider,5,1,independent.presup,1,<b>Ann doesn't have a dord.</b> ,0.00,100.00,0.00
# Columns below this comment are as follows:
# 1. Time results were received.
# 2. MD5 hash of participant's IP address.
# 3. Controller name.
# 4. Item number.
# 5. Element number.
# 6. Type.
# 7. Group.
# 8. Sentence (or sentence MD5).
1605296427,8ac26fb0caa8c6eb7d5efc1d63742c27,SingleSlider,6,0,independent.ant,2,<p>Ann is an alien from this planet. Here%2C some aliens are glorps and some aliens are not glorps.</p> <p>Some of the aliens here have dords%2C but it doesn’t matter whether they’re glorps or not.</p> <p><b>If Ann is a glorp%2C she will yapple her dord.</b></p> 
1605296427,8ac26fb0caa8c6eb7d5efc1d63742c27,SingleSlider,6,0,independent.ant,2, <br> <p>How surprised would you be if you learned that ...?</p> 
# The lines below this comment are in groups of 2.
# The formats of the lines in each of these groups are as follows:
#
# Line 1:
#     Col. 1: Time results were received.
#     Col. 2: MD5 hash of participant's IP address.
#     Col. 3: Controller name.
#     Col. 4: Item number.
#     Col. 5: Element number.
#     Col. 6: Type.
#     Col. 7: Group.
#     Col. 8: html.
#     Col. 9: startValue.
#     Col. 10: endValue.
#     Col. 11: value.
# Line 2:
#     Col. 1: Time results were received.
#     Col. 2: MD5 hash of participant's IP address.
#     Col. 3: Controller name.
#     Col. 4: Item number.
#     Col. 5: Element number.
#     Col. 6: Type.
#     Col. 7: Group.
#     Col. 8: Field name.
#     Col. 9: Field value.
1605296427,8ac26fb0caa8c6eb7d5efc1d63742c27,SingleSlider,6,0,independent.ant,2,<b>Ann is a glorp.</b> ,0.00,100.00,0.00
1605296427,8ac26fb0caa8c6eb7d5efc1d63742c27,AY_Form_inst,7,0,dependent.presup,3,_REACTION_TIME_,1716
# Columns below this comment are as follows:
# 1. Time results were received.
# 2. MD5 hash of participant's IP address.
# 3. Controller name.
# 4. Item number.
# 5. Element number.
# 6. Type.
# 7. Group.
# 8. Sentence (or sentence MD5).
1605296427,8ac26fb0caa8c6eb7d5efc1d63742c27,SingleSlider,7,1,dependent.presup,3,<p>Bea is an alien from this planet. Here%2C some aliens are morties and some aliens are not morties.</p> <p>Half of the morties have a lealo. No one else has lealos.</p> <p><b>If Bea is a mortie%2C she will wegget her lealo.</b></p> 
1605296427,8ac26fb0caa8c6eb7d5efc1d63742c27,SingleSlider,7,1,dependent.presup,3, <br> <p>How surprised would you be if you learned that ...?</p> 
# The lines below this comment are in groups of 2.
# The formats of the lines in each of these groups are as follows:
#
# Line 1:
#     Col. 1: Time results were received.
#     Col. 2: MD5 hash of participant's IP address.
#     Col. 3: Controller name.
#     Col. 4: Item number.
#     Col. 5: Element number.
#     Col. 6: Type.
#     Col. 7: Group.
#     Col. 8: html.
#     Col. 9: startValue.
#     Col. 10: endValue.
#     Col. 11: value.
# Line 2:
#     Col. 1: Time results were received.
#     Col. 2: MD5 hash of participant's IP address.
#     Col. 3: Controller name.
#     Col. 4: Item number.
#     Col. 5: Element number.
#     Col. 6: Type.
#     Col. 7: Group.
#     Col. 8: Sentence (or sentence MD5).
1605296427,8ac26fb0caa8c6eb7d5efc1d63742c27,SingleSlider,7,1,dependent.presup,3,<b>Bea doesn't have a lealo.</b> ,0.00,100.00,0.00
1605296427,8ac26fb0caa8c6eb7d5efc1d63742c27,SingleSlider,8,0,dependent.ant,4,<p>Bea is an alien from this planet. Here%2C some morties and some aliens are not morties.</p> <p>Half of the morties have a lealo. No one else has lealos.</p> <p><b>If Bea is a mortie%2C she will wegget her lealo.</b></p> 
# The lines below this comment are in groups of 2.
# The formats of the lines in each of these groups are as follows:
#
# Line 1:
#     Col. 1: Time results were received.
#     Col. 2: MD5 hash of participant's IP address.
#     Col. 3: Controller name.
#     Col. 4: Item number.
#     Col. 5: Element number.
#     Col. 6: Type.
#     Col. 7: Group.
#     Col. 8: Sentence (or sentence MD5).
# Line 2:
#     Col. 1: Time results were received.
#     Col. 2: MD5 hash of participant's IP address.
#     Col. 3: Controller name.
#     Col. 4: Item number.
#     Col. 5: Element number.
#     Col. 6: Type.
#     Col. 7: Group.
#     Col. 8: html.
#     Col. 9: startValue.
#     Col. 10: endValue.
#     Col. 11: value.
1605296427,8ac26fb0caa8c6eb7d5efc1d63742c27,SingleSlider,8,0,dependent.ant,4, <br> <p>How surprised would you be if you learned that ...?</p> 
1605296427,8ac26fb0caa8c6eb7d5efc1d63742c27,SingleSlider,8,0,dependent.ant,4,<b>Bea is a mortie. </b>,0.00,100.00,0.00
# The lines below this comment are in groups of 2.
# The formats of the lines in each of these groups are as follows:
#
# Line 1:
#     Col. 1: Time results were received.
#     Col. 2: MD5 hash of participant's IP address.
#     Col. 3: Controller name.
#     Col. 4: Item number.
#     Col. 5: Element number.
#     Col. 6: Type.
#     Col. 7: Group.
#     Col. 8: Field name.
#     Col. 9: Field value.
# Line 2:
#     Col. 1: Time results were received.
#     Col. 2: MD5 hash of participant's IP address.
#     Col. 3: Controller name.
#     Col. 4: Item number.
#     Col. 5: Element number.
#     Col. 6: Type.
#     Col. 7: Group.
#     Col. 8: Sentence (or sentence MD5).
1605296427,8ac26fb0caa8c6eb7d5efc1d63742c27,AY_Form_inst,9,0,fulldep.presup,5,_REACTION_TIME_,1400
1605296427,8ac26fb0caa8c6eb7d5efc1d63742c27,SingleSlider,9,1,fulldep.presup,5,<p>Cece is an alien from this planet. Here%2C some aliens are gogopos and some aliens are not gogopos.</p> <p>All gogopos have a hoopler. No one else has hooplers.</p> <p><b>If Cece is a gogopo%2C she will dippefy her hoopler.</b></p> 
# The lines below this comment are in groups of 2.
# The formats of the lines in each of these groups are as follows:
#
# Line 1:
#     Col. 1: Time results were received.
#     Col. 2: MD5 hash of participant's IP address.
#     Col. 3: Controller name.
#     Col. 4: Item number.
#     Col. 5: Element number.
#     Col. 6: Type.
#     Col. 7: Group.
#     Col. 8: Sentence (or sentence MD5).
# Line 2:
#     Col. 1: Time results were received.
#     Col. 2: MD5 hash of participant's IP address.
#     Col. 3: Controller name.
#     Col. 4: Item number.
#     Col. 5: Element number.
#     Col. 6: Type.
#     Col. 7: Group.
#     Col. 8: html.
#     Col. 9: startValue.
#     Col. 10: endValue.
#     Col. 11: value.
1605296427,8ac26fb0caa8c6eb7d5efc1d63742c27,SingleSlider,9,1,fulldep.presup,5, <br> <p>How surprised would you be if you learned that ...?</p> 
1605296427,8ac26fb0caa8c6eb7d5efc1d63742c27,SingleSlider,9,1,fulldep.presup,5,<b>Cece doesn't have a hoopler.</b> ,0.00,100.00,0.00
# Columns below this comment are as follows:
# 1. Time results were received.
# 2. MD5 hash of participant's IP address.
# 3. Controller name.
# 4. Item number.
# 5. Element number.
# 6. Type.
# 7. Group.
# 8. Sentence (or sentence MD5).
1605296427,8ac26fb0caa8c6eb7d5efc1d63742c27,SingleSlider,10,0,fulldep.ant,6,<p>Cece is an alien from this planet. Here%2C   some aliens are gogopos and some aliens are not gogopos.</p> <p>All gogopos have a hoopler. No one else has hooplers.</p> <p><b>If Cece is a gogopo%2C she will dippefy her hoopler.</b></p> 
1605296427,8ac26fb0caa8c6eb7d5efc1d63742c27,SingleSlider,10,0,fulldep.ant,6, <br> <p>How surprised would you be if you learned that ...?</p> 
# The lines below this comment are in groups of 2.
# The formats of the lines in each of these groups are as follows:
#
# Line 1:
#     Col. 1: Time results were received.
#     Col. 2: MD5 hash of participant's IP address.
#     Col. 3: Controller name.
#     Col. 4: Item number.
#     Col. 5: Element number.
#     Col. 6: Type.
#     Col. 7: Group.
#     Col. 8: html.
#     Col. 9: startValue.
#     Col. 10: endValue.
#     Col. 11: value.
# Line 2:
#     Col. 1: Time results were received.
#     Col. 2: MD5 hash of participant's IP address.
#     Col. 3: Controller name.
#     Col. 4: Item number.
#     Col. 5: Element number.
#     Col. 6: Type.
#     Col. 7: Group.
#     Col. 8: Field name.
#     Col. 9: Field value.
1605296427,8ac26fb0caa8c6eb7d5efc1d63742c27,SingleSlider,10,0,fulldep.ant,6,<b>Cece is a gogopo.</b> ,0.00,100.00,0.00
1605296427,8ac26fb0caa8c6eb7d5efc1d63742c27,Form,3,0,exit,NULL,comment,
# Columns below this comment are as follows:
# 1. Time results were received.
# 2. MD5 hash of participant's IP address.
# 3. Controller name.
# 4. Item number.
# 5. Element number.
# 6. Type.
# 7. Group.
# 8. Field name.
# 9. Field value.
1605296427,8ac26fb0caa8c6eb7d5efc1d63742c27,Form,3,0,exit,NULL,_REACTION_TIME_,2263
#
# Results on Friday November 13 2020 19:52:44 UTC.
# USER AGENT: Mozilla/5.0 (Windows NT 10.0; WOW64) AppleWebKit/537.36 (KHTML, like Gecko) Chrome/53.0.2785.116 Safari/537.36 QBCore/4.0.1301.400 QQBrowser/9.0.2524.400 Mozilla/5.0 (Windows NT 6.1; WOW64) AppleWebKit/537.36 (KHTML, like Gecko) Chrome/53.0.2875.116 Safari/537.36 NetType/WIFI MicroMessenger/7.0.5 WindowsWechat
# Design number was non-random = 5
#
# Columns below this comment are as follows:
# 1. Time results were received.
# 2. MD5 hash of participant's IP address.
# 3. Controller name.
# 4. Item number.
# 5. Element number.
# 6. Type.
# 7. Group.
# 8. Field name.
# 9. Field value.
1605297164,a84b0efbf95b1a934107854b24ce44f5,Form,1,0,intro1,NULL,_REACTION_TIME_,1579
1605297164,a84b0efbf95b1a934107854b24ce44f5,Form,2,0,intro2,NULL,_REACTION_TIME_,23155
1605297164,a84b0efbf95b1a934107854b24ce44f5,AY_Form_inst,11,0,control.presup,7,_REACTION_TIME_,3849
# Columns below this comment are as follows:
# 1. Time results were received.
# 2. MD5 hash of participant's IP address.
# 3. Controller name.
# 4. Item number.
# 5. Element number.
# 6. Type.
# 7. Group.
# 8. Sentence (or sentence MD5).
1605297164,a84b0efbf95b1a934107854b24ce44f5,SingleSlider,11,1,control.presup,7,<p>Eva is an alien from this planet. Here%2C some aliens are fleppers and some aliens are not fleppers.</p> <p>Most of the fleppers have a lammor.</p> <p><b>Eva is a flepper%2C and she has a lammor.</b></p> 
1605297164,a84b0efbf95b1a934107854b24ce44f5,SingleSlider,11,1,control.presup,7, <br> <p>How surprised would you be if you learned that ...?</p> 
# The lines below this comment are in groups of 2.
# The formats of the lines in each of these groups are as follows:
#
# Line 1:
#     Col. 1: Time results were received.
#     Col. 2: MD5 hash of participant's IP address.
#     Col. 3: Controller name.
#     Col. 4: Item number.
#     Col. 5: Element number.
#     Col. 6: Type.
#     Col. 7: Group.
#     Col. 8: html.
#     Col. 9: startValue.
#     Col. 10: endValue.
#     Col. 11: value.
# Line 2:
#     Col. 1: Time results were received.
#     Col. 2: MD5 hash of participant's IP address.
#     Col. 3: Controller name.
#     Col. 4: Item number.
#     Col. 5: Element number.
#     Col. 6: Type.
#     Col. 7: Group.
#     Col. 8: Sentence (or sentence MD5).
1605297164,a84b0efbf95b1a934107854b24ce44f5,SingleSlider,11,1,control.presup,7,<b>Eva doesn't have a lammor.</b> ,0.00,100.00,0.00
1605297164,a84b0efbf95b1a934107854b24ce44f5,SingleSlider,12,0,control.ant,8,<p>Eva is an alien from this planet. Here%2C  some aliens are fleppers and some aliens are not fleppers.</p> <p>Most of the fleppers have a lammor.</p> <p><b>Eva is a flepper%2C and she has a lammor.</b></p> 
# The lines below this comment are in groups of 2.
# The formats of the lines in each of these groups are as follows:
#
# Line 1:
#     Col. 1: Time results were received.
#     Col. 2: MD5 hash of participant's IP address.
#     Col. 3: Controller name.
#     Col. 4: Item number.
#     Col. 5: Element number.
#     Col. 6: Type.
#     Col. 7: Group.
#     Col. 8: Sentence (or sentence MD5).
# Line 2:
#     Col. 1: Time results were received.
#     Col. 2: MD5 hash of participant's IP address.
#     Col. 3: Controller name.
#     Col. 4: Item number.
#     Col. 5: Element number.
#     Col. 6: Type.
#     Col. 7: Group.
#     Col. 8: html.
#     Col. 9: startValue.
#     Col. 10: endValue.
#     Col. 11: value.
1605297164,a84b0efbf95b1a934107854b24ce44f5,SingleSlider,12,0,control.ant,8, <br> <p>How surprised would you be if you learned that ...?</p> 
1605297164,a84b0efbf95b1a934107854b24ce44f5,SingleSlider,12,0,control.ant,8,<b>Eva is a flepper.</b> ,0.00,100.00,0.00
# The lines below this comment are in groups of 2.
# The formats of the lines in each of these groups are as follows:
#
# Line 1:
#     Col. 1: Time results were received.
#     Col. 2: MD5 hash of participant's IP address.
#     Col. 3: Controller name.
#     Col. 4: Item number.
#     Col. 5: Element number.
#     Col. 6: Type.
#     Col. 7: Group.
#     Col. 8: Field name.
#     Col. 9: Field value.
# Line 2:
#     Col. 1: Time results were received.
#     Col. 2: MD5 hash of participant's IP address.
#     Col. 3: Controller name.
#     Col. 4: Item number.
#     Col. 5: Element number.
#     Col. 6: Type.
#     Col. 7: Group.
#     Col. 8: Sentence (or sentence MD5).
1605297164,a84b0efbf95b1a934107854b24ce44f5,AY_Form_inst,5,0,independent.presup,1,_REACTION_TIME_,2461
1605297164,a84b0efbf95b1a934107854b24ce44f5,SingleSlider,5,1,independent.presup,1,<p>Ann is an alien from this planet. Here%2C some aliens are glorps and some aliens are not glorps.</p> <p>Some of the aliens have dords%2C but it doesn’t matter whether they’re glorps or not.</p> <p><b>If Ann is a glorp%2C she will yapple her dord.</b></p> 
# The lines below this comment are in groups of 2.
# The formats of the lines in each of these groups are as follows:
#
# Line 1:
#     Col. 1: Time results were received.
#     Col. 2: MD5 hash of participant's IP address.
#     Col. 3: Controller name.
#     Col. 4: Item number.
#     Col. 5: Element number.
#     Col. 6: Type.
#     Col. 7: Group.
#     Col. 8: Sentence (or sentence MD5).
# Line 2:
#     Col. 1: Time results were received.
#     Col. 2: MD5 hash of participant's IP address.
#     Col. 3: Controller name.
#     Col. 4: Item number.
#     Col. 5: Element number.
#     Col. 6: Type.
#     Col. 7: Group.
#     Col. 8: html.
#     Col. 9: startValue.
#     Col. 10: endValue.
#     Col. 11: value.
1605297164,a84b0efbf95b1a934107854b24ce44f5,SingleSlider,5,1,independent.presup,1, <br> <p>How surprised would you be if you learned that ...?</p> 
1605297164,a84b0efbf95b1a934107854b24ce44f5,SingleSlider,5,1,independent.presup,1,<b>Ann doesn't have a dord.</b> ,0.00,100.00,72.00
# Columns below this comment are as follows:
# 1. Time results were received.
# 2. MD5 hash of participant's IP address.
# 3. Controller name.
# 4. Item number.
# 5. Element number.
# 6. Type.
# 7. Group.
# 8. Sentence (or sentence MD5).
1605297164,a84b0efbf95b1a934107854b24ce44f5,SingleSlider,6,0,independent.ant,2,<p>Ann is an alien from this planet. Here%2C some aliens are glorps and some aliens are not glorps.</p> <p>Some of the aliens here have dords%2C but it doesn’t matter whether they’re glorps or not.</p> <p><b>If Ann is a glorp%2C she will yapple her dord.</b></p> 
1605297164,a84b0efbf95b1a934107854b24ce44f5,SingleSlider,6,0,independent.ant,2, <br> <p>How surprised would you be if you learned that ...?</p> 
# The lines below this comment are in groups of 2.
# The formats of the lines in each of these groups are as follows:
#
# Line 1:
#     Col. 1: Time results were received.
#     Col. 2: MD5 hash of participant's IP address.
#     Col. 3: Controller name.
#     Col. 4: Item number.
#     Col. 5: Element number.
#     Col. 6: Type.
#     Col. 7: Group.
#     Col. 8: html.
#     Col. 9: startValue.
#     Col. 10: endValue.
#     Col. 11: value.
# Line 2:
#     Col. 1: Time results were received.
#     Col. 2: MD5 hash of participant's IP address.
#     Col. 3: Controller name.
#     Col. 4: Item number.
#     Col. 5: Element number.
#     Col. 6: Type.
#     Col. 7: Group.
#     Col. 8: Field name.
#     Col. 9: Field value.
1605297164,a84b0efbf95b1a934107854b24ce44f5,SingleSlider,6,0,independent.ant,2,<b>Ann is a glorp.</b> ,0.00,100.00,0.00
1605297164,a84b0efbf95b1a934107854b24ce44f5,AY_Form_inst,7,0,dependent.presup,3,_REACTION_TIME_,1785
# Columns below this comment are as follows:
# 1. Time results were received.
# 2. MD5 hash of participant's IP address.
# 3. Controller name.
# 4. Item number.
# 5. Element number.
# 6. Type.
# 7. Group.
# 8. Sentence (or sentence MD5).
1605297164,a84b0efbf95b1a934107854b24ce44f5,SingleSlider,7,1,dependent.presup,3,<p>Bea is an alien from this planet. Here%2C some aliens are morties and some aliens are not morties.</p> <p>Half of the morties have a lealo. No one else has lealos.</p> <p><b>If Bea is a mortie%2C she will wegget her lealo.</b></p> 
1605297164,a84b0efbf95b1a934107854b24ce44f5,SingleSlider,7,1,dependent.presup,3, <br> <p>How surprised would you be if you learned that ...?</p> 
# The lines below this comment are in groups of 2.
# The formats of the lines in each of these groups are as follows:
#
# Line 1:
#     Col. 1: Time results were received.
#     Col. 2: MD5 hash of participant's IP address.
#     Col. 3: Controller name.
#     Col. 4: Item number.
#     Col. 5: Element number.
#     Col. 6: Type.
#     Col. 7: Group.
#     Col. 8: html.
#     Col. 9: startValue.
#     Col. 10: endValue.
#     Col. 11: value.
# Line 2:
#     Col. 1: Time results were received.
#     Col. 2: MD5 hash of participant's IP address.
#     Col. 3: Controller name.
#     Col. 4: Item number.
#     Col. 5: Element number.
#     Col. 6: Type.
#     Col. 7: Group.
#     Col. 8: Sentence (or sentence MD5).
1605297164,a84b0efbf95b1a934107854b24ce44f5,SingleSlider,7,1,dependent.presup,3,<b>Bea doesn't have a lealo.</b> ,0.00,100.00,0.00
1605297164,a84b0efbf95b1a934107854b24ce44f5,SingleSlider,8,0,dependent.ant,4,<p>Bea is an alien from this planet. Here%2C some morties and some aliens are not morties.</p> <p>Half of the morties have a lealo. No one else has lealos.</p> <p><b>If Bea is a mortie%2C she will wegget her lealo.</b></p> 
# The lines below this comment are in groups of 2.
# The formats of the lines in each of these groups are as follows:
#
# Line 1:
#     Col. 1: Time results were received.
#     Col. 2: MD5 hash of participant's IP address.
#     Col. 3: Controller name.
#     Col. 4: Item number.
#     Col. 5: Element number.
#     Col. 6: Type.
#     Col. 7: Group.
#     Col. 8: Sentence (or sentence MD5).
# Line 2:
#     Col. 1: Time results were received.
#     Col. 2: MD5 hash of participant's IP address.
#     Col. 3: Controller name.
#     Col. 4: Item number.
#     Col. 5: Element number.
#     Col. 6: Type.
#     Col. 7: Group.
#     Col. 8: html.
#     Col. 9: startValue.
#     Col. 10: endValue.
#     Col. 11: value.
1605297164,a84b0efbf95b1a934107854b24ce44f5,SingleSlider,8,0,dependent.ant,4, <br> <p>How surprised would you be if you learned that ...?</p> 
1605297164,a84b0efbf95b1a934107854b24ce44f5,SingleSlider,8,0,dependent.ant,4,<b>Bea is a mortie. </b>,0.00,100.00,100.00
# The lines below this comment are in groups of 2.
# The formats of the lines in each of these groups are as follows:
#
# Line 1:
#     Col. 1: Time results were received.
#     Col. 2: MD5 hash of participant's IP address.
#     Col. 3: Controller name.
#     Col. 4: Item number.
#     Col. 5: Element number.
#     Col. 6: Type.
#     Col. 7: Group.
#     Col. 8: Field name.
#     Col. 9: Field value.
# Line 2:
#     Col. 1: Time results were received.
#     Col. 2: MD5 hash of participant's IP address.
#     Col. 3: Controller name.
#     Col. 4: Item number.
#     Col. 5: Element number.
#     Col. 6: Type.
#     Col. 7: Group.
#     Col. 8: Sentence (or sentence MD5).
1605297164,a84b0efbf95b1a934107854b24ce44f5,AY_Form_inst,9,0,fulldep.presup,5,_REACTION_TIME_,1470
1605297164,a84b0efbf95b1a934107854b24ce44f5,SingleSlider,9,1,fulldep.presup,5,<p>Cece is an alien from this planet. Here%2C some aliens are gogopos and some aliens are not gogopos.</p> <p>All gogopos have a hoopler. No one else has hooplers.</p> <p><b>If Cece is a gogopo%2C she will dippefy her hoopler.</b></p> 
# The lines below this comment are in groups of 2.
# The formats of the lines in each of these groups are as follows:
#
# Line 1:
#     Col. 1: Time results were received.
#     Col. 2: MD5 hash of participant's IP address.
#     Col. 3: Controller name.
#     Col. 4: Item number.
#     Col. 5: Element number.
#     Col. 6: Type.
#     Col. 7: Group.
#     Col. 8: Sentence (or sentence MD5).
# Line 2:
#     Col. 1: Time results were received.
#     Col. 2: MD5 hash of participant's IP address.
#     Col. 3: Controller name.
#     Col. 4: Item number.
#     Col. 5: Element number.
#     Col. 6: Type.
#     Col. 7: Group.
#     Col. 8: html.
#     Col. 9: startValue.
#     Col. 10: endValue.
#     Col. 11: value.
1605297164,a84b0efbf95b1a934107854b24ce44f5,SingleSlider,9,1,fulldep.presup,5, <br> <p>How surprised would you be if you learned that ...?</p> 
1605297164,a84b0efbf95b1a934107854b24ce44f5,SingleSlider,9,1,fulldep.presup,5,<b>Cece doesn't have a hoopler.</b> ,0.00,100.00,0.00
# Columns below this comment are as follows:
# 1. Time results were received.
# 2. MD5 hash of participant's IP address.
# 3. Controller name.
# 4. Item number.
# 5. Element number.
# 6. Type.
# 7. Group.
# 8. Sentence (or sentence MD5).
1605297164,a84b0efbf95b1a934107854b24ce44f5,SingleSlider,10,0,fulldep.ant,6,<p>Cece is an alien from this planet. Here%2C   some aliens are gogopos and some aliens are not gogopos.</p> <p>All gogopos have a hoopler. No one else has hooplers.</p> <p><b>If Cece is a gogopo%2C she will dippefy her hoopler.</b></p> 
1605297164,a84b0efbf95b1a934107854b24ce44f5,SingleSlider,10,0,fulldep.ant,6, <br> <p>How surprised would you be if you learned that ...?</p> 
# The lines below this comment are in groups of 2.
# The formats of the lines in each of these groups are as follows:
#
# Line 1:
#     Col. 1: Time results were received.
#     Col. 2: MD5 hash of participant's IP address.
#     Col. 3: Controller name.
#     Col. 4: Item number.
#     Col. 5: Element number.
#     Col. 6: Type.
#     Col. 7: Group.
#     Col. 8: html.
#     Col. 9: startValue.
#     Col. 10: endValue.
#     Col. 11: value.
# Line 2:
#     Col. 1: Time results were received.
#     Col. 2: MD5 hash of participant's IP address.
#     Col. 3: Controller name.
#     Col. 4: Item number.
#     Col. 5: Element number.
#     Col. 6: Type.
#     Col. 7: Group.
#     Col. 8: Field name.
#     Col. 9: Field value.
1605297164,a84b0efbf95b1a934107854b24ce44f5,SingleSlider,10,0,fulldep.ant,6,<b>Cece is a gogopo.</b> ,0.00,100.00,100.00
1605297164,a84b0efbf95b1a934107854b24ce44f5,Form,3,0,exit,NULL,comment,
# Columns below this comment are as follows:
# 1. Time results were received.
# 2. MD5 hash of participant's IP address.
# 3. Controller name.
# 4. Item number.
# 5. Element number.
# 6. Type.
# 7. Group.
# 8. Field name.
# 9. Field value.
1605297164,a84b0efbf95b1a934107854b24ce44f5,Form,3,0,exit,NULL,_REACTION_TIME_,2850
#
# Results on Friday November 13 2020 20:28:36 UTC.
# USER AGENT: Mozilla/5.0 (Macintosh; Intel Mac OS X 10_14_6) AppleWebKit/537.36 (KHTML, like Gecko) Chrome/86.0.4240.183 Safari/537.36 OPR/72.0.3815.320
# Design number was non-random = 6
#
# Columns below this comment are as follows:
# 1. Time results were received.
# 2. MD5 hash of participant's IP address.
# 3. Controller name.
# 4. Item number.
# 5. Element number.
# 6. Type.
# 7. Group.
# 8. Field name.
# 9. Field value.
1605299317,08e48269b5294912452bc7144e8e0a1f,Form,1,0,intro1,NULL,_REACTION_TIME_,5609
1605299317,08e48269b5294912452bc7144e8e0a1f,Form,2,0,intro2,NULL,_REACTION_TIME_,13095
1605299317,08e48269b5294912452bc7144e8e0a1f,AY_Form_inst,11,0,control.presup,7,_REACTION_TIME_,2291
# Columns below this comment are as follows:
# 1. Time results were received.
# 2. MD5 hash of participant's IP address.
# 3. Controller name.
# 4. Item number.
# 5. Element number.
# 6. Type.
# 7. Group.
# 8. Sentence (or sentence MD5).
1605299317,08e48269b5294912452bc7144e8e0a1f,SingleSlider,11,1,control.presup,7,<p>Eva is an alien from this planet. Here%2C some aliens are fleppers and some aliens are not fleppers.</p> <p>Most of the fleppers have a lammor.</p> <p><b>Eva is a flepper%2C and she has a lammor.</b></p> 
1605299317,08e48269b5294912452bc7144e8e0a1f,SingleSlider,11,1,control.presup,7, <br> <p>How surprised would you be if you learned that ...?</p> 
# The lines below this comment are in groups of 2.
# The formats of the lines in each of these groups are as follows:
#
# Line 1:
#     Col. 1: Time results were received.
#     Col. 2: MD5 hash of participant's IP address.
#     Col. 3: Controller name.
#     Col. 4: Item number.
#     Col. 5: Element number.
#     Col. 6: Type.
#     Col. 7: Group.
#     Col. 8: html.
#     Col. 9: startValue.
#     Col. 10: endValue.
#     Col. 11: value.
# Line 2:
#     Col. 1: Time results were received.
#     Col. 2: MD5 hash of participant's IP address.
#     Col. 3: Controller name.
#     Col. 4: Item number.
#     Col. 5: Element number.
#     Col. 6: Type.
#     Col. 7: Group.
#     Col. 8: Sentence (or sentence MD5).
1605299317,08e48269b5294912452bc7144e8e0a1f,SingleSlider,11,1,control.presup,7,<b>Eva doesn't have a lammor.</b> ,0.00,100.00,65.33
1605299317,08e48269b5294912452bc7144e8e0a1f,SingleSlider,12,0,control.ant,8,<p>Eva is an alien from this planet. Here%2C  some aliens are fleppers and some aliens are not fleppers.</p> <p>Most of the fleppers have a lammor.</p> <p><b>Eva is a flepper%2C and she has a lammor.</b></p> 
# The lines below this comment are in groups of 2.
# The formats of the lines in each of these groups are as follows:
#
# Line 1:
#     Col. 1: Time results were received.
#     Col. 2: MD5 hash of participant's IP address.
#     Col. 3: Controller name.
#     Col. 4: Item number.
#     Col. 5: Element number.
#     Col. 6: Type.
#     Col. 7: Group.
#     Col. 8: Sentence (or sentence MD5).
# Line 2:
#     Col. 1: Time results were received.
#     Col. 2: MD5 hash of participant's IP address.
#     Col. 3: Controller name.
#     Col. 4: Item number.
#     Col. 5: Element number.
#     Col. 6: Type.
#     Col. 7: Group.
#     Col. 8: html.
#     Col. 9: startValue.
#     Col. 10: endValue.
#     Col. 11: value.
1605299317,08e48269b5294912452bc7144e8e0a1f,SingleSlider,12,0,control.ant,8, <br> <p>How surprised would you be if you learned that ...?</p> 
1605299317,08e48269b5294912452bc7144e8e0a1f,SingleSlider,12,0,control.ant,8,<b>Eva is a flepper.</b> ,0.00,100.00,0.00
# The lines below this comment are in groups of 2.
# The formats of the lines in each of these groups are as follows:
#
# Line 1:
#     Col. 1: Time results were received.
#     Col. 2: MD5 hash of participant's IP address.
#     Col. 3: Controller name.
#     Col. 4: Item number.
#     Col. 5: Element number.
#     Col. 6: Type.
#     Col. 7: Group.
#     Col. 8: Field name.
#     Col. 9: Field value.
# Line 2:
#     Col. 1: Time results were received.
#     Col. 2: MD5 hash of participant's IP address.
#     Col. 3: Controller name.
#     Col. 4: Item number.
#     Col. 5: Element number.
#     Col. 6: Type.
#     Col. 7: Group.
#     Col. 8: Sentence (or sentence MD5).
1605299317,08e48269b5294912452bc7144e8e0a1f,AY_Form_inst,5,0,independent.presup,1,_REACTION_TIME_,2270
1605299317,08e48269b5294912452bc7144e8e0a1f,SingleSlider,5,1,independent.presup,1,<p>Ann is an alien from this planet. Here%2C some aliens are glorps and some aliens are not glorps.</p> <p>Some of the aliens have dords%2C but it doesn’t matter whether they’re glorps or not.</p> <p><b>If Ann is a glorp%2C she will yapple her dord.</b></p> 
# The lines below this comment are in groups of 2.
# The formats of the lines in each of these groups are as follows:
#
# Line 1:
#     Col. 1: Time results were received.
#     Col. 2: MD5 hash of participant's IP address.
#     Col. 3: Controller name.
#     Col. 4: Item number.
#     Col. 5: Element number.
#     Col. 6: Type.
#     Col. 7: Group.
#     Col. 8: Sentence (or sentence MD5).
# Line 2:
#     Col. 1: Time results were received.
#     Col. 2: MD5 hash of participant's IP address.
#     Col. 3: Controller name.
#     Col. 4: Item number.
#     Col. 5: Element number.
#     Col. 6: Type.
#     Col. 7: Group.
#     Col. 8: html.
#     Col. 9: startValue.
#     Col. 10: endValue.
#     Col. 11: value.
1605299317,08e48269b5294912452bc7144e8e0a1f,SingleSlider,5,1,independent.presup,1, <br> <p>How surprised would you be if you learned that ...?</p> 
1605299317,08e48269b5294912452bc7144e8e0a1f,SingleSlider,5,1,independent.presup,1,<b>Ann doesn't have a dord.</b> ,0.00,100.00,100.00
# Columns below this comment are as follows:
# 1. Time results were received.
# 2. MD5 hash of participant's IP address.
# 3. Controller name.
# 4. Item number.
# 5. Element number.
# 6. Type.
# 7. Group.
# 8. Sentence (or sentence MD5).
1605299317,08e48269b5294912452bc7144e8e0a1f,SingleSlider,6,0,independent.ant,2,<p>Ann is an alien from this planet. Here%2C some aliens are glorps and some aliens are not glorps.</p> <p>Some of the aliens here have dords%2C but it doesn’t matter whether they’re glorps or not.</p> <p><b>If Ann is a glorp%2C she will yapple her dord.</b></p> 
1605299317,08e48269b5294912452bc7144e8e0a1f,SingleSlider,6,0,independent.ant,2, <br> <p>How surprised would you be if you learned that ...?</p> 
# The lines below this comment are in groups of 2.
# The formats of the lines in each of these groups are as follows:
#
# Line 1:
#     Col. 1: Time results were received.
#     Col. 2: MD5 hash of participant's IP address.
#     Col. 3: Controller name.
#     Col. 4: Item number.
#     Col. 5: Element number.
#     Col. 6: Type.
#     Col. 7: Group.
#     Col. 8: html.
#     Col. 9: startValue.
#     Col. 10: endValue.
#     Col. 11: value.
# Line 2:
#     Col. 1: Time results were received.
#     Col. 2: MD5 hash of participant's IP address.
#     Col. 3: Controller name.
#     Col. 4: Item number.
#     Col. 5: Element number.
#     Col. 6: Type.
#     Col. 7: Group.
#     Col. 8: Field name.
#     Col. 9: Field value.
1605299317,08e48269b5294912452bc7144e8e0a1f,SingleSlider,6,0,independent.ant,2,<b>Ann is a glorp.</b> ,0.00,100.00,0.00
1605299317,08e48269b5294912452bc7144e8e0a1f,AY_Form_inst,7,0,dependent.presup,3,_REACTION_TIME_,2345
# Columns below this comment are as follows:
# 1. Time results were received.
# 2. MD5 hash of participant's IP address.
# 3. Controller name.
# 4. Item number.
# 5. Element number.
# 6. Type.
# 7. Group.
# 8. Sentence (or sentence MD5).
1605299317,08e48269b5294912452bc7144e8e0a1f,SingleSlider,7,1,dependent.presup,3,<p>Bea is an alien from this planet. Here%2C some aliens are morties and some aliens are not morties.</p> <p>Half of the morties have a lealo. No one else has lealos.</p> <p><b>If Bea is a mortie%2C she will wegget her lealo.</b></p> 
1605299317,08e48269b5294912452bc7144e8e0a1f,SingleSlider,7,1,dependent.presup,3, <br> <p>How surprised would you be if you learned that ...?</p> 
# Columns below this comment are as follows:
# 1. Time results were received.
# 2. MD5 hash of participant's IP address.
# 3. Controller name.
# 4. Item number.
# 5. Element number.
# 6. Type.
# 7. Group.
# 8. html.
# 9. startValue.
# 10. endValue.
# 11. value.
1605299317,08e48269b5294912452bc7144e8e0a1f,SingleSlider,7,1,dependent.presup,3,<b>Bea doesn't have a lealo.</b> ,0.00,100.00,0.00
1605299317,08e48269b5294912452bc7144e8e0a1f,SingleSlider,8,0,dependent.ant,4,<b>Bea is a mortie. </b>,0.00,100.00,0.00
# The lines below this comment are in groups of 2.
# The formats of the lines in each of these groups are as follows:
#
# Line 1:
#     Col. 1: Time results were received.
#     Col. 2: MD5 hash of participant's IP address.
#     Col. 3: Controller name.
#     Col. 4: Item number.
#     Col. 5: Element number.
#     Col. 6: Type.
#     Col. 7: Group.
#     Col. 8: Field name.
#     Col. 9: Field value.
# Line 2:
#     Col. 1: Time results were received.
#     Col. 2: MD5 hash of participant's IP address.
#     Col. 3: Controller name.
#     Col. 4: Item number.
#     Col. 5: Element number.
#     Col. 6: Type.
#     Col. 7: Group.
#     Col. 8: Sentence (or sentence MD5).
1605299317,08e48269b5294912452bc7144e8e0a1f,AY_Form_inst,9,0,fulldep.presup,5,_REACTION_TIME_,2430
1605299317,08e48269b5294912452bc7144e8e0a1f,SingleSlider,9,1,fulldep.presup,5,<p>Cece is an alien from this planet. Here%2C some aliens are gogopos and some aliens are not gogopos.</p> <p>All gogopos have a hoopler. No one else has hooplers.</p> <p><b>If Cece is a gogopo%2C she will dippefy her hoopler.</b></p> 
# The lines below this comment are in groups of 2.
# The formats of the lines in each of these groups are as follows:
#
# Line 1:
#     Col. 1: Time results were received.
#     Col. 2: MD5 hash of participant's IP address.
#     Col. 3: Controller name.
#     Col. 4: Item number.
#     Col. 5: Element number.
#     Col. 6: Type.
#     Col. 7: Group.
#     Col. 8: Sentence (or sentence MD5).
# Line 2:
#     Col. 1: Time results were received.
#     Col. 2: MD5 hash of participant's IP address.
#     Col. 3: Controller name.
#     Col. 4: Item number.
#     Col. 5: Element number.
#     Col. 6: Type.
#     Col. 7: Group.
#     Col. 8: html.
#     Col. 9: startValue.
#     Col. 10: endValue.
#     Col. 11: value.
1605299317,08e48269b5294912452bc7144e8e0a1f,SingleSlider,9,1,fulldep.presup,5, <br> <p>How surprised would you be if you learned that ...?</p> 
1605299317,08e48269b5294912452bc7144e8e0a1f,SingleSlider,9,1,fulldep.presup,5,<b>Cece doesn't have a hoopler.</b> ,0.00,100.00,0.00
# Columns below this comment are as follows:
# 1. Time results were received.
# 2. MD5 hash of participant's IP address.
# 3. Controller name.
# 4. Item number.
# 5. Element number.
# 6. Type.
# 7. Group.
# 8. Sentence (or sentence MD5).
1605299317,08e48269b5294912452bc7144e8e0a1f,SingleSlider,10,0,fulldep.ant,6,<p>Cece is an alien from this planet. Here%2C   some aliens are gogopos and some aliens are not gogopos.</p> <p>All gogopos have a hoopler. No one else has hooplers.</p> <p><b>If Cece is a gogopo%2C she will dippefy her hoopler.</b></p> 
1605299317,08e48269b5294912452bc7144e8e0a1f,SingleSlider,10,0,fulldep.ant,6, <br> <p>How surprised would you be if you learned that ...?</p> 
# The lines below this comment are in groups of 2.
# The formats of the lines in each of these groups are as follows:
#
# Line 1:
#     Col. 1: Time results were received.
#     Col. 2: MD5 hash of participant's IP address.
#     Col. 3: Controller name.
#     Col. 4: Item number.
#     Col. 5: Element number.
#     Col. 6: Type.
#     Col. 7: Group.
#     Col. 8: html.
#     Col. 9: startValue.
#     Col. 10: endValue.
#     Col. 11: value.
# Line 2:
#     Col. 1: Time results were received.
#     Col. 2: MD5 hash of participant's IP address.
#     Col. 3: Controller name.
#     Col. 4: Item number.
#     Col. 5: Element number.
#     Col. 6: Type.
#     Col. 7: Group.
#     Col. 8: Field name.
#     Col. 9: Field value.
1605299317,08e48269b5294912452bc7144e8e0a1f,SingleSlider,10,0,fulldep.ant,6,<b>Cece is a gogopo.</b> ,0.00,100.00,0.00
1605299317,08e48269b5294912452bc7144e8e0a1f,Form,3,0,exit,NULL,comment,
# Columns below this comment are as follows:
# 1. Time results were received.
# 2. MD5 hash of participant's IP address.
# 3. Controller name.
# 4. Item number.
# 5. Element number.
# 6. Type.
# 7. Group.
# 8. Field name.
# 9. Field value.
1605299317,08e48269b5294912452bc7144e8e0a1f,Form,3,0,exit,NULL,_REACTION_TIME_,4686
#
# Results on Friday November 13 2020 20:51:56 UTC.
# USER AGENT: Mozilla/5.0 (Linux; Android 8.0.0; SM-G930F Build/R16NW; wv) AppleWebKit/537.36 (KHTML, like Gecko) Version/4.0 Chrome/86.0.4240.185 Mobile Safari/537.36 [FB_IAB/FB4A;FBAV/295.0.0.36.119;]
# Design number was non-random = 7
#
# Columns below this comment are as follows:
# 1. Time results were received.
# 2. MD5 hash of participant's IP address.
# 3. Controller name.
# 4. Item number.
# 5. Element number.
# 6. Type.
# 7. Group.
# 8. Field name.
# 9. Field value.
1605300717,24b54a109c70b6ad9d0350924c84187a,Form,1,0,intro1,NULL,_REACTION_TIME_,5584
1605300717,24b54a109c70b6ad9d0350924c84187a,Form,2,0,intro2,NULL,_REACTION_TIME_,32229
1605300717,24b54a109c70b6ad9d0350924c84187a,AY_Form_inst,11,0,control.presup,7,_REACTION_TIME_,4378
# Columns below this comment are as follows:
# 1. Time results were received.
# 2. MD5 hash of participant's IP address.
# 3. Controller name.
# 4. Item number.
# 5. Element number.
# 6. Type.
# 7. Group.
# 8. Sentence (or sentence MD5).
1605300717,24b54a109c70b6ad9d0350924c84187a,SingleSlider,11,1,control.presup,7,<p>Eva is an alien from this planet. Here%2C some aliens are fleppers and some aliens are not fleppers.</p> <p>Most of the fleppers have a lammor.</p> <p><b>Eva is a flepper%2C and she has a lammor.</b></p> 
1605300717,24b54a109c70b6ad9d0350924c84187a,SingleSlider,11,1,control.presup,7, <br> <p>How surprised would you be if you learned that ...?</p> 
# The lines below this comment are in groups of 2.
# The formats of the lines in each of these groups are as follows:
#
# Line 1:
#     Col. 1: Time results were received.
#     Col. 2: MD5 hash of participant's IP address.
#     Col. 3: Controller name.
#     Col. 4: Item number.
#     Col. 5: Element number.
#     Col. 6: Type.
#     Col. 7: Group.
#     Col. 8: html.
#     Col. 9: startValue.
#     Col. 10: endValue.
#     Col. 11: value.
# Line 2:
#     Col. 1: Time results were received.
#     Col. 2: MD5 hash of participant's IP address.
