#,,,,,,,,,,
# Results on Tuesday November 24 2020 16:10:38 UTC.,,,,,,,,,,
# USER AGENT: Mozilla/5.0 (Windows NT 10.0; Win64; x64) AppleWebKit/537.36 (KHTML, like Gecko) Chrome/84.0.4147.105 Safari/537.36 Edg/84.0.522.52,,,,,,,,,
# Design number was non-random = 0,,,,,,,,,,
#,,,,,,,,,,
# Columns below this comment are as follows:,,,,,,,,,,
# 1. Time results were received.,,,,,,,,,,
# 2. MD5 hash of participant's IP address.,,,,,,,,,,
# 3. Controller name.,,,,,,,,,,
# 4. Item number.,,,,,,,,,,
# 5. Element number.,,,,,,,,,,
# 6. Type.,,,,,,,,,,
# 7. Group.,,,,,,,,,,
# 8. Field name.,,,,,,,,,,
# 9. Field value.,,,,,,,,,,
1606234238,1547242c9d62ec9d4029baf826b9c620,Form,1,0,consent,NULL,consent,yes,,
1606234238,1547242c9d62ec9d4029baf826b9c620,Form,1,0,consent,NULL,_REACTION_TIME_,3137,,
1606234238,1547242c9d62ec9d4029baf826b9c620,Form,2,0,0_info,NULL,age,31,,
1606234238,1547242c9d62ec9d4029baf826b9c620,Form,2,0,0_info,NULL,natlang,english,,
1606234238,1547242c9d62ec9d4029baf826b9c620,Form,2,0,0_info,NULL,state,IA,,
1606234238,1547242c9d62ec9d4029baf826b9c620,Form,2,0,0_info,NULL,parentlang,english,,
1606234238,1547242c9d62ec9d4029baf826b9c620,Form,2,0,0_info,NULL,domlang,english,,
1606234238,1547242c9d62ec9d4029baf826b9c620,Form,2,0,0_info,NULL,otherlang,no,,
1606234238,1547242c9d62ec9d4029baf826b9c620,Form,2,0,0_info,NULL,ID,A3CH1Z6J9R38G9,,
1606234238,1547242c9d62ec9d4029baf826b9c620,Form,2,0,0_info,NULL,_REACTION_TIME_,21858,,
1606234238,1547242c9d62ec9d4029baf826b9c620,Form,3,0,intro1,NULL,_REACTION_TIME_,1668,,
1606234238,1547242c9d62ec9d4029baf826b9c620,Form,4,0,intro2,NULL,_REACTION_TIME_,3538,,
1606234238,1547242c9d62ec9d4029baf826b9c620,AY_Form_inst,7,0,control.presup,1,_REACTION_TIME_,1995,,
# Columns below this comment are as follows:,,,,,,,,,,
# 1. Time results were received.,,,,,,,,,,
# 2. MD5 hash of participant's IP address.,,,,,,,,,,
# 3. Controller name.,,,,,,,,,,
# 4. Item number.,,,,,,,,,,
# 5. Element number.,,,,,,,,,,
# 6. Type.,,,,,,,,,,
# 7. Group.,,,,,,,,,,
# 8. Sentence (or sentence MD5).,,,,,,,,,,
1606234238,1547242c9d62ec9d4029baf826b9c620,SingleSlider,7,1,control.presup,1,<p>On this planet%2C some aliens are fleppers and some aliens are not fleppers.</p> <p><b>You overhear a few aliens talking about lammoring%2C but you don't understand it.</b></p> <p>You are about to interview Eva%2C an alien from this planet. The information you've collected about Eva so far suggests this: <b>Eva is a flepper%2C and she likes to lammor.</b></p> ,,,
1606234238,1547242c9d62ec9d4029baf826b9c620,SingleSlider,7,1,control.presup,1, <br> <p>How surprised would you be to learn during the interview that ...?</p> ,,,
# The lines below this comment are in groups of 2.,,,,,,,,,,
# The formats of the lines in each of these groups are as follows:,,,,,,,,,,
#,,,,,,,,,,
# Line 1:,,,,,,,,,,
#     Col. 1: Time results were received.,,,,,,,,,,
#     Col. 2: MD5 hash of participant's IP address.,,,,,,,,,,
#     Col. 3: Controller name.,,,,,,,,,,
#     Col. 4: Item number.,,,,,,,,,,
#     Col. 5: Element number.,,,,,,,,,,
#     Col. 6: Type.,,,,,,,,,,
#     Col. 7: Group.,,,,,,,,,,
#     Col. 8: html.,,,,,,,,,,
#     Col. 9: startValue.,,,,,,,,,,
#     Col. 10: endValue.,,,,,,,,,,
#     Col. 11: value.,,,,,,,,,,
# Line 2:,,,,,,,,,,
#     Col. 1: Time results were received.,,,,,,,,,,
#     Col. 2: MD5 hash of participant's IP address.,,,,,,,,,,
#     Col. 3: Controller name.,,,,,,,,,,
#     Col. 4: Item number.,,,,,,,,,,
#     Col. 5: Element number.,,,,,,,,,,
#     Col. 6: Type.,,,,,,,,,,
#     Col. 7: Group.,,,,,,,,,,
#     Col. 8: Sentence (or sentence MD5).,,,,,,,,,,
1606234238,1547242c9d62ec9d4029baf826b9c620,SingleSlider,7,1,control.presup,1,<b>Eva doesn't like to lammor.</b> ,0,100,100
1606234238,1547242c9d62ec9d4029baf826b9c620,SingleSlider,8,0,control.ant,2,<p>On this planet%2C some aliens are fleppers and some aliens are not fleppers.</p> <p><b>You overhear a few aliens talking about lammoring%2C but you don't understand it.</b></p> <p>You are about to interview Eva%2C an alien from this planet. The information you've collected about Eva so far suggests this: <b>Eva is a flepper%2C and she likes to lammor.</b></p> ,,,
# The lines below this comment are in groups of 2.,,,,,,,,,,
# The formats of the lines in each of these groups are as follows:,,,,,,,,,,
#,,,,,,,,,,
# Line 1:,,,,,,,,,,
#     Col. 1: Time results were received.,,,,,,,,,,
#     Col. 2: MD5 hash of participant's IP address.,,,,,,,,,,
#     Col. 3: Controller name.,,,,,,,,,,
#     Col. 4: Item number.,,,,,,,,,,
#     Col. 5: Element number.,,,,,,,,,,
#     Col. 6: Type.,,,,,,,,,,
#     Col. 7: Group.,,,,,,,,,,
#     Col. 8: Sentence (or sentence MD5).,,,,,,,,,,
# Line 2:,,,,,,,,,,
#     Col. 1: Time results were received.,,,,,,,,,,
#     Col. 2: MD5 hash of participant's IP address.,,,,,,,,,,
#     Col. 3: Controller name.,,,,,,,,,,
#     Col. 4: Item number.,,,,,,,,,,
#     Col. 5: Element number.,,,,,,,,,,
#     Col. 6: Type.,,,,,,,,,,
#     Col. 7: Group.,,,,,,,,,,
#     Col. 8: html.,,,,,,,,,,
#     Col. 9: startValue.,,,,,,,,,,
#     Col. 10: endValue.,,,,,,,,,,
#     Col. 11: value.,,,,,,,,,,
1606234238,1547242c9d62ec9d4029baf826b9c620,SingleSlider,8,0,control.ant,2, <br> <p>How surprised would you be to learn during the interview that ...?</p> ,,,
1606234238,1547242c9d62ec9d4029baf826b9c620,SingleSlider,8,0,control.ant,2,<b>Eva is a flepper.</b> ,0,100,0
# The lines below this comment are in groups of 2.,,,,,,,,,,
# The formats of the lines in each of these groups are as follows:,,,,,,,,,,
#,,,,,,,,,,
# Line 1:,,,,,,,,,,
#     Col. 1: Time results were received.,,,,,,,,,,
#     Col. 2: MD5 hash of participant's IP address.,,,,,,,,,,
#     Col. 3: Controller name.,,,,,,,,,,
#     Col. 4: Item number.,,,,,,,,,,
#     Col. 5: Element number.,,,,,,,,,,
#     Col. 6: Type.,,,,,,,,,,
#     Col. 7: Group.,,,,,,,,,,
#     Col. 8: Field name.,,,,,,,,,,
#     Col. 9: Field value.,,,,,,,,,,
# Line 2:,,,,,,,,,,
#     Col. 1: Time results were received.,,,,,,,,,,
#     Col. 2: MD5 hash of participant's IP address.,,,,,,,,,,
#     Col. 3: Controller name.,,,,,,,,,,
#     Col. 4: Item number.,,,,,,,,,,
#     Col. 5: Element number.,,,,,,,,,,
#     Col. 6: Type.,,,,,,,,,,
#     Col. 7: Group.,,,,,,,,,,
#     Col. 8: Sentence (or sentence MD5).,,,,,,,,,,
1606234238,1547242c9d62ec9d4029baf826b9c620,AY_Form_inst,9,0,null.presup,3,_REACTION_TIME_,1193,,
1606234238,1547242c9d62ec9d4029baf826b9c620,SingleSlider,9,1,null.presup,3,<p>On this planet%2C some aliens are gogopos and some aliens are not gogopos.</p> <p><b>You notice the word 'dord' on a guidebook%2C but no one explains it to you.</b></p> <p>You are about to interview Diane%2C an alien from this planet. The information you've collected about Diane so far suggests this: <b>If Diane is a gogopo%2C she will yapple her dord.</b></p> ,,,
# The lines below this comment are in groups of 2.,,,,,,,,,,
# The formats of the lines in each of these groups are as follows:,,,,,,,,,,
#,,,,,,,,,,
# Line 1:,,,,,,,,,,
#     Col. 1: Time results were received.,,,,,,,,,,
#     Col. 2: MD5 hash of participant's IP address.,,,,,,,,,,
#     Col. 3: Controller name.,,,,,,,,,,
#     Col. 4: Item number.,,,,,,,,,,
#     Col. 5: Element number.,,,,,,,,,,
#     Col. 6: Type.,,,,,,,,,,
#     Col. 7: Group.,,,,,,,,,,
#     Col. 8: Sentence (or sentence MD5).,,,,,,,,,,
# Line 2:,,,,,,,,,,
#     Col. 1: Time results were received.,,,,,,,,,,
#     Col. 2: MD5 hash of participant's IP address.,,,,,,,,,,
#     Col. 3: Controller name.,,,,,,,,,,
#     Col. 4: Item number.,,,,,,,,,,
#     Col. 5: Element number.,,,,,,,,,,
#     Col. 6: Type.,,,,,,,,,,
#     Col. 7: Group.,,,,,,,,,,
#     Col. 8: html.,,,,,,,,,,
#     Col. 9: startValue.,,,,,,,,,,
#     Col. 10: endValue.,,,,,,,,,,
#     Col. 11: value.,,,,,,,,,,
1606234238,1547242c9d62ec9d4029baf826b9c620,SingleSlider,9,1,null.presup,3, <br> <p>How surprised would you be to learn during the interview that ...?</p> ,,,
1606234238,1547242c9d62ec9d4029baf826b9c620,SingleSlider,9,1,null.presup,3,<b>Diane doesn't have a dord.</b> ,0,100,81.67
# Columns below this comment are as follows:,,,,,,,,,,
# 1. Time results were received.,,,,,,,,,,
# 2. MD5 hash of participant's IP address.,,,,,,,,,,
# 3. Controller name.,,,,,,,,,,
# 4. Item number.,,,,,,,,,,
# 5. Element number.,,,,,,,,,,
# 6. Type.,,,,,,,,,,
# 7. Group.,,,,,,,,,,
# 8. Sentence (or sentence MD5).,,,,,,,,,,
1606234238,1547242c9d62ec9d4029baf826b9c620,SingleSlider,10,0,null.ant,4,<p>On this planet%2C some aliens are gogopos and some aliens are not gogopos.</p> <p><b>You notice the word 'dord' on a guidebook%2C but no one explains it to you.</b></p> <p>You are about to interview Diane%2C an alien from this planet. The information you've collected about Diane so far suggests this: <b>If Diane is a gogopo%2C she will yapple her dord.</b></p> ,,,
1606234238,1547242c9d62ec9d4029baf826b9c620,SingleSlider,10,0,null.ant,4, <br> <p>How surprised would you be to learn during the interview that ...?</p> ,,,
# The lines below this comment are in groups of 2.,,,,,,,,,,
# The formats of the lines in each of these groups are as follows:,,,,,,,,,,
#,,,,,,,,,,
# Line 1:,,,,,,,,,,
#     Col. 1: Time results were received.,,,,,,,,,,
#     Col. 2: MD5 hash of participant's IP address.,,,,,,,,,,
#     Col. 3: Controller name.,,,,,,,,,,
#     Col. 4: Item number.,,,,,,,,,,
#     Col. 5: Element number.,,,,,,,,,,
#     Col. 6: Type.,,,,,,,,,,
#     Col. 7: Group.,,,,,,,,,,
#     Col. 8: html.,,,,,,,,,,
#     Col. 9: startValue.,,,,,,,,,,
#     Col. 10: endValue.,,,,,,,,,,
#     Col. 11: value.,,,,,,,,,,
# Line 2:,,,,,,,,,,
#     Col. 1: Time results were received.,,,,,,,,,,
#     Col. 2: MD5 hash of participant's IP address.,,,,,,,,,,
#     Col. 3: Controller name.,,,,,,,,,,
#     Col. 4: Item number.,,,,,,,,,,
#     Col. 5: Element number.,,,,,,,,,,
#     Col. 6: Type.,,,,,,,,,,
#     Col. 7: Group.,,,,,,,,,,
#     Col. 8: Field name.,,,,,,,,,,
#     Col. 9: Field value.,,,,,,,,,,
1606234238,1547242c9d62ec9d4029baf826b9c620,SingleSlider,10,0,null.ant,4,<b>Diane is a gogopo.</b> ,0,100,50.33
1606234238,1547242c9d62ec9d4029baf826b9c620,Form,5,0,exit,NULL,comment,,,
# Columns below this comment are as follows:,,,,,,,,,,
# 1. Time results were received.,,,,,,,,,,
# 2. MD5 hash of participant's IP address.,,,,,,,,,,
# 3. Controller name.,,,,,,,,,,
# 4. Item number.,,,,,,,,,,
# 5. Element number.,,,,,,,,,,
# 6. Type.,,,,,,,,,,
# 7. Group.,,,,,,,,,,
# 8. Field name.,,,,,,,,,,
# 9. Field value.,,,,,,,,,,
1606234238,1547242c9d62ec9d4029baf826b9c620,Form,5,0,exit,NULL,_REACTION_TIME_,1837,,
#,,,,,,,,,,
# Results on Tuesday November 24 2020 16:10:44 UTC.,,,,,,,,,,
# USER AGENT: Mozilla/5.0 (Windows NT 10.0; Win64; x64) AppleWebKit/537.36 (KHTML, like Gecko) Chrome/87.0.4280.66 Safari/537.36,,,,,,,,,
# Design number was non-random = 0,,,,,,,,,,
#,,,,,,,,,,
# Columns below this comment are as follows:,,,,,,,,,,
# 1. Time results were received.,,,,,,,,,,
# 2. MD5 hash of participant's IP address.,,,,,,,,,,
# 3. Controller name.,,,,,,,,,,
# 4. Item number.,,,,,,,,,,
# 5. Element number.,,,,,,,,,,
# 6. Type.,,,,,,,,,,
# 7. Group.,,,,,,,,,,
# 8. Field name.,,,,,,,,,,
# 9. Field value.,,,,,,,,,,
1606234244,7e42b7f938e216a558919f9a0ca63b4c,Form,1,0,consent,NULL,consent,yes,,
1606234244,7e42b7f938e216a558919f9a0ca63b4c,Form,1,0,consent,NULL,_REACTION_TIME_,1357,,
1606234244,7e42b7f938e216a558919f9a0ca63b4c,Form,2,0,0_info,NULL,age,29,,
1606234244,7e42b7f938e216a558919f9a0ca63b4c,Form,2,0,0_info,NULL,natlang,English,,
1606234244,7e42b7f938e216a558919f9a0ca63b4c,Form,2,0,0_info,NULL,state,ny,,
1606234244,7e42b7f938e216a558919f9a0ca63b4c,Form,2,0,0_info,NULL,parentlang,English,,
1606234244,7e42b7f938e216a558919f9a0ca63b4c,Form,2,0,0_info,NULL,domlang,English,,
1606234244,7e42b7f938e216a558919f9a0ca63b4c,Form,2,0,0_info,NULL,otherlang,no,,
1606234244,7e42b7f938e216a558919f9a0ca63b4c,Form,2,0,0_info,NULL,ID,A1TARNH07A75CG,,
1606234244,7e42b7f938e216a558919f9a0ca63b4c,Form,2,0,0_info,NULL,_REACTION_TIME_,23914,,
1606234244,7e42b7f938e216a558919f9a0ca63b4c,Form,3,0,intro1,NULL,_REACTION_TIME_,1510,,
1606234244,7e42b7f938e216a558919f9a0ca63b4c,Form,4,0,intro2,NULL,_REACTION_TIME_,9453,,
1606234244,7e42b7f938e216a558919f9a0ca63b4c,AY_Form_inst,7,0,control.presup,1,_REACTION_TIME_,2571,,
# Columns below this comment are as follows:,,,,,,,,,,
# 1. Time results were received.,,,,,,,,,,
# 2. MD5 hash of participant's IP address.,,,,,,,,,,
# 3. Controller name.,,,,,,,,,,
# 4. Item number.,,,,,,,,,,
# 5. Element number.,,,,,,,,,,
# 6. Type.,,,,,,,,,,
# 7. Group.,,,,,,,,,,
# 8. Sentence (or sentence MD5).,,,,,,,,,,
1606234244,7e42b7f938e216a558919f9a0ca63b4c,SingleSlider,7,1,control.presup,1,<p>On this planet%2C some aliens are fleppers and some aliens are not fleppers.</p> <p><b>You overhear a few aliens talking about lammoring%2C but you don't understand it.</b></p> <p>You are about to interview Eva%2C an alien from this planet. The information you've collected about Eva so far suggests this: <b>Eva is a flepper%2C and she likes to lammor.</b></p> ,,,
1606234244,7e42b7f938e216a558919f9a0ca63b4c,SingleSlider,7,1,control.presup,1, <br> <p>How surprised would you be to learn during the interview that ...?</p> ,,,
# The lines below this comment are in groups of 2.,,,,,,,,,,
# The formats of the lines in each of these groups are as follows:,,,,,,,,,,
#,,,,,,,,,,
# Line 1:,,,,,,,,,,
#     Col. 1: Time results were received.,,,,,,,,,,
#     Col. 2: MD5 hash of participant's IP address.,,,,,,,,,,
#     Col. 3: Controller name.,,,,,,,,,,
#     Col. 4: Item number.,,,,,,,,,,
#     Col. 5: Element number.,,,,,,,,,,
#     Col. 6: Type.,,,,,,,,,,
#     Col. 7: Group.,,,,,,,,,,
#     Col. 8: html.,,,,,,,,,,
#     Col. 9: startValue.,,,,,,,,,,
#     Col. 10: endValue.,,,,,,,,,,
#     Col. 11: value.,,,,,,,,,,
# Line 2:,,,,,,,,,,
#     Col. 1: Time results were received.,,,,,,,,,,
#     Col. 2: MD5 hash of participant's IP address.,,,,,,,,,,
#     Col. 3: Controller name.,,,,,,,,,,
#     Col. 4: Item number.,,,,,,,,,,
#     Col. 5: Element number.,,,,,,,,,,
#     Col. 6: Type.,,,,,,,,,,
#     Col. 7: Group.,,,,,,,,,,
#     Col. 8: Sentence (or sentence MD5).,,,,,,,,,,
1606234244,7e42b7f938e216a558919f9a0ca63b4c,SingleSlider,7,1,control.presup,1,<b>Eva doesn't like to lammor.</b> ,0,100,100
1606234244,7e42b7f938e216a558919f9a0ca63b4c,SingleSlider,8,0,control.ant,2,<p>On this planet%2C some aliens are fleppers and some aliens are not fleppers.</p> <p><b>You overhear a few aliens talking about lammoring%2C but you don't understand it.</b></p> <p>You are about to interview Eva%2C an alien from this planet. The information you've collected about Eva so far suggests this: <b>Eva is a flepper%2C and she likes to lammor.</b></p> ,,,
# The lines below this comment are in groups of 2.,,,,,,,,,,
# The formats of the lines in each of these groups are as follows:,,,,,,,,,,
#,,,,,,,,,,
# Line 1:,,,,,,,,,,
#     Col. 1: Time results were received.,,,,,,,,,,
#     Col. 2: MD5 hash of participant's IP address.,,,,,,,,,,
#     Col. 3: Controller name.,,,,,,,,,,
#     Col. 4: Item number.,,,,,,,,,,
#     Col. 5: Element number.,,,,,,,,,,
#     Col. 6: Type.,,,,,,,,,,
#     Col. 7: Group.,,,,,,,,,,
#     Col. 8: Sentence (or sentence MD5).,,,,,,,,,,
# Line 2:,,,,,,,,,,
#     Col. 1: Time results were received.,,,,,,,,,,
#     Col. 2: MD5 hash of participant's IP address.,,,,,,,,,,
#     Col. 3: Controller name.,,,,,,,,,,
#     Col. 4: Item number.,,,,,,,,,,
#     Col. 5: Element number.,,,,,,,,,,
#     Col. 6: Type.,,,,,,,,,,
#     Col. 7: Group.,,,,,,,,,,
#     Col. 8: html.,,,,,,,,,,
#     Col. 9: startValue.,,,,,,,,,,
#     Col. 10: endValue.,,,,,,,,,,
#     Col. 11: value.,,,,,,,,,,
1606234244,7e42b7f938e216a558919f9a0ca63b4c,SingleSlider,8,0,control.ant,2, <br> <p>How surprised would you be to learn during the interview that ...?</p> ,,,
1606234244,7e42b7f938e216a558919f9a0ca63b4c,SingleSlider,8,0,control.ant,2,<b>Eva is a flepper.</b> ,0,100,0
# The lines below this comment are in groups of 2.,,,,,,,,,,
# The formats of the lines in each of these groups are as follows:,,,,,,,,,,
#,,,,,,,,,,
# Line 1:,,,,,,,,,,
#     Col. 1: Time results were received.,,,,,,,,,,
#     Col. 2: MD5 hash of participant's IP address.,,,,,,,,,,
#     Col. 3: Controller name.,,,,,,,,,,
#     Col. 4: Item number.,,,,,,,,,,
#     Col. 5: Element number.,,,,,,,,,,
#     Col. 6: Type.,,,,,,,,,,
#     Col. 7: Group.,,,,,,,,,,
#     Col. 8: Field name.,,,,,,,,,,
#     Col. 9: Field value.,,,,,,,,,,
# Line 2:,,,,,,,,,,
#     Col. 1: Time results were received.,,,,,,,,,,
#     Col. 2: MD5 hash of participant's IP address.,,,,,,,,,,
#     Col. 3: Controller name.,,,,,,,,,,
#     Col. 4: Item number.,,,,,,,,,,
#     Col. 5: Element number.,,,,,,,,,,
#     Col. 6: Type.,,,,,,,,,,
#     Col. 7: Group.,,,,,,,,,,
#     Col. 8: Sentence (or sentence MD5).,,,,,,,,,,
1606234244,7e42b7f938e216a558919f9a0ca63b4c,AY_Form_inst,9,0,null.presup,3,_REACTION_TIME_,1535,,
1606234244,7e42b7f938e216a558919f9a0ca63b4c,SingleSlider,9,1,null.presup,3,<p>On this planet%2C some aliens are gogopos and some aliens are not gogopos.</p> <p><b>You notice the word 'dord' on a guidebook%2C but no one explains it to you.</b></p> <p>You are about to interview Diane%2C an alien from this planet. The information you've collected about Diane so far suggests this: <b>If Diane is a gogopo%2C she will yapple her dord.</b></p> ,,,
# The lines below this comment are in groups of 2.,,,,,,,,,,
# The formats of the lines in each of these groups are as follows:,,,,,,,,,,
#,,,,,,,,,,
# Line 1:,,,,,,,,,,
#     Col. 1: Time results were received.,,,,,,,,,,
#     Col. 2: MD5 hash of participant's IP address.,,,,,,,,,,
#     Col. 3: Controller name.,,,,,,,,,,
#     Col. 4: Item number.,,,,,,,,,,
#     Col. 5: Element number.,,,,,,,,,,
#     Col. 6: Type.,,,,,,,,,,
#     Col. 7: Group.,,,,,,,,,,
#     Col. 8: Sentence (or sentence MD5).,,,,,,,,,,
# Line 2:,,,,,,,,,,
#     Col. 1: Time results were received.,,,,,,,,,,
#     Col. 2: MD5 hash of participant's IP address.,,,,,,,,,,
#     Col. 3: Controller name.,,,,,,,,,,
#     Col. 4: Item number.,,,,,,,,,,
#     Col. 5: Element number.,,,,,,,,,,
#     Col. 6: Type.,,,,,,,,,,
#     Col. 7: Group.,,,,,,,,,,
#     Col. 8: html.,,,,,,,,,,
#     Col. 9: startValue.,,,,,,,,,,
#     Col. 10: endValue.,,,,,,,,,,
#     Col. 11: value.,,,,,,,,,,
1606234244,7e42b7f938e216a558919f9a0ca63b4c,SingleSlider,9,1,null.presup,3, <br> <p>How surprised would you be to learn during the interview that ...?</p> ,,,
1606234244,7e42b7f938e216a558919f9a0ca63b4c,SingleSlider,9,1,null.presup,3,<b>Diane doesn't have a dord.</b> ,0,100,50.33
# Columns below this comment are as follows:,,,,,,,,,,
# 1. Time results were received.,,,,,,,,,,
# 2. MD5 hash of participant's IP address.,,,,,,,,,,
# 3. Controller name.,,,,,,,,,,
# 4. Item number.,,,,,,,,,,
# 5. Element number.,,,,,,,,,,
# 6. Type.,,,,,,,,,,
# 7. Group.,,,,,,,,,,
# 8. Sentence (or sentence MD5).,,,,,,,,,,
1606234244,7e42b7f938e216a558919f9a0ca63b4c,SingleSlider,10,0,null.ant,4,<p>On this planet%2C some aliens are gogopos and some aliens are not gogopos.</p> <p><b>You notice the word 'dord' on a guidebook%2C but no one explains it to you.</b></p> <p>You are about to interview Diane%2C an alien from this planet. The information you've collected about Diane so far suggests this: <b>If Diane is a gogopo%2C she will yapple her dord.</b></p> ,,,
1606234244,7e42b7f938e216a558919f9a0ca63b4c,SingleSlider,10,0,null.ant,4, <br> <p>How surprised would you be to learn during the interview that ...?</p> ,,,
# The lines below this comment are in groups of 2.,,,,,,,,,,
# The formats of the lines in each of these groups are as follows:,,,,,,,,,,
#,,,,,,,,,,
# Line 1:,,,,,,,,,,
#     Col. 1: Time results were received.,,,,,,,,,,
#     Col. 2: MD5 hash of participant's IP address.,,,,,,,,,,
#     Col. 3: Controller name.,,,,,,,,,,
#     Col. 4: Item number.,,,,,,,,,,
#     Col. 5: Element number.,,,,,,,,,,
#     Col. 6: Type.,,,,,,,,,,
#     Col. 7: Group.,,,,,,,,,,
#     Col. 8: html.,,,,,,,,,,
#     Col. 9: startValue.,,,,,,,,,,
#     Col. 10: endValue.,,,,,,,,,,
#     Col. 11: value.,,,,,,,,,,
# Line 2:,,,,,,,,,,
#     Col. 1: Time results were received.,,,,,,,,,,
#     Col. 2: MD5 hash of participant's IP address.,,,,,,,,,,
#     Col. 3: Controller name.,,,,,,,,,,
#     Col. 4: Item number.,,,,,,,,,,
#     Col. 5: Element number.,,,,,,,,,,
#     Col. 6: Type.,,,,,,,,,,
#     Col. 7: Group.,,,,,,,,,,
#     Col. 8: Field name.,,,,,,,,,,
#     Col. 9: Field value.,,,,,,,,,,
1606234244,7e42b7f938e216a558919f9a0ca63b4c,SingleSlider,10,0,null.ant,4,<b>Diane is a gogopo.</b> ,0,100,50.33
1606234244,7e42b7f938e216a558919f9a0ca63b4c,Form,5,0,exit,NULL,comment,,,
# Columns below this comment are as follows:,,,,,,,,,,
# 1. Time results were received.,,,,,,,,,,
# 2. MD5 hash of participant's IP address.,,,,,,,,,,
# 3. Controller name.,,,,,,,,,,
# 4. Item number.,,,,,,,,,,
# 5. Element number.,,,,,,,,,,
# 6. Type.,,,,,,,,,,
# 7. Group.,,,,,,,,,,
# 8. Field name.,,,,,,,,,,
# 9. Field value.,,,,,,,,,,
1606234244,7e42b7f938e216a558919f9a0ca63b4c,Form,5,0,exit,NULL,_REACTION_TIME_,2172,,
#,,,,,,,,,,
# Results on Tuesday November 24 2020 16:11:13 UTC.,,,,,,,,,,
# USER AGENT: Mozilla/5.0 (Windows NT 10.0; Win64; x64) AppleWebKit/537.36 (KHTML, like Gecko) Chrome/87.0.4280.66 Safari/537.36,,,,,,,,,
# Design number was non-random = 0,,,,,,,,,,
#,,,,,,,,,,
# Columns below this comment are as follows:,,,,,,,,,,
# 1. Time results were received.,,,,,,,,,,
# 2. MD5 hash of participant's IP address.,,,,,,,,,,
# 3. Controller name.,,,,,,,,,,
# 4. Item number.,,,,,,,,,,
# 5. Element number.,,,,,,,,,,
# 6. Type.,,,,,,,,,,
# 7. Group.,,,,,,,,,,
# 8. Field name.,,,,,,,,,,
# 9. Field value.,,,,,,,,,,
1606234273,2d1e300a125078f8ad22cbcfcec27ce8,Form,1,0,consent,NULL,consent,yes,,
1606234273,2d1e300a125078f8ad22cbcfcec27ce8,Form,1,0,consent,NULL,_REACTION_TIME_,3804,,
1606234273,2d1e300a125078f8ad22cbcfcec27ce8,Form,2,0,0_info,NULL,age,48,,
1606234273,2d1e300a125078f8ad22cbcfcec27ce8,Form,2,0,0_info,NULL,natlang,English,,
1606234273,2d1e300a125078f8ad22cbcfcec27ce8,Form,2,0,0_info,NULL,state,NY,,
1606234273,2d1e300a125078f8ad22cbcfcec27ce8,Form,2,0,0_info,NULL,parentlang,English,,
1606234273,2d1e300a125078f8ad22cbcfcec27ce8,Form,2,0,0_info,NULL,domlang,English,,
1606234273,2d1e300a125078f8ad22cbcfcec27ce8,Form,2,0,0_info,NULL,otherlang,no,,
1606234273,2d1e300a125078f8ad22cbcfcec27ce8,Form,2,0,0_info,NULL,ID,A110KENBXU7SUJ,,
1606234273,2d1e300a125078f8ad22cbcfcec27ce8,Form,2,0,0_info,NULL,_REACTION_TIME_,13079,,
1606234273,2d1e300a125078f8ad22cbcfcec27ce8,Form,3,0,intro1,NULL,_REACTION_TIME_,2396,,
1606234273,2d1e300a125078f8ad22cbcfcec27ce8,Form,4,0,intro2,NULL,_REACTION_TIME_,19847,,
1606234273,2d1e300a125078f8ad22cbcfcec27ce8,AY_Form_inst,7,0,control.presup,1,_REACTION_TIME_,3080,,
# Columns below this comment are as follows:,,,,,,,,,,
# 1. Time results were received.,,,,,,,,,,
# 2. MD5 hash of participant's IP address.,,,,,,,,,,
# 3. Controller name.,,,,,,,,,,
# 4. Item number.,,,,,,,,,,
# 5. Element number.,,,,,,,,,,
# 6. Type.,,,,,,,,,,
# 7. Group.,,,,,,,,,,
# 8. Sentence (or sentence MD5).,,,,,,,,,,
1606234273,2d1e300a125078f8ad22cbcfcec27ce8,SingleSlider,7,1,control.presup,1,<p>On this planet%2C some aliens are fleppers and some aliens are not fleppers.</p> <p><b>You overhear a few aliens talking about lammoring%2C but you don't understand it.</b></p> <p>You are about to interview Eva%2C an alien from this planet. The information you've collected about Eva so far suggests this: <b>Eva is a flepper%2C and she likes to lammor.</b></p> ,,,
1606234273,2d1e300a125078f8ad22cbcfcec27ce8,SingleSlider,7,1,control.presup,1, <br> <p>How surprised would you be to learn during the interview that ...?</p> ,,,
# The lines below this comment are in groups of 2.,,,,,,,,,,
# The formats of the lines in each of these groups are as follows:,,,,,,,,,,
#,,,,,,,,,,
# Line 1:,,,,,,,,,,
#     Col. 1: Time results were received.,,,,,,,,,,
#     Col. 2: MD5 hash of participant's IP address.,,,,,,,,,,
#     Col. 3: Controller name.,,,,,,,,,,
#     Col. 4: Item number.,,,,,,,,,,
#     Col. 5: Element number.,,,,,,,,,,
#     Col. 6: Type.,,,,,,,,,,
#     Col. 7: Group.,,,,,,,,,,
#     Col. 8: html.,,,,,,,,,,
#     Col. 9: startValue.,,,,,,,,,,
#     Col. 10: endValue.,,,,,,,,,,
#     Col. 11: value.,,,,,,,,,,
# Line 2:,,,,,,,,,,
#     Col. 1: Time results were received.,,,,,,,,,,
#     Col. 2: MD5 hash of participant's IP address.,,,,,,,,,,
#     Col. 3: Controller name.,,,,,,,,,,
#     Col. 4: Item number.,,,,,,,,,,
#     Col. 5: Element number.,,,,,,,,,,
#     Col. 6: Type.,,,,,,,,,,
#     Col. 7: Group.,,,,,,,,,,
#     Col. 8: Sentence (or sentence MD5).,,,,,,,,,,
1606234273,2d1e300a125078f8ad22cbcfcec27ce8,SingleSlider,7,1,control.presup,1,<b>Eva doesn't like to lammor.</b> ,0,100,100
1606234273,2d1e300a125078f8ad22cbcfcec27ce8,SingleSlider,8,0,control.ant,2,<p>On this planet%2C some aliens are fleppers and some aliens are not fleppers.</p> <p><b>You overhear a few aliens talking about lammoring%2C but you don't understand it.</b></p> <p>You are about to interview Eva%2C an alien from this planet. The information you've collected about Eva so far suggests this: <b>Eva is a flepper%2C and she likes to lammor.</b></p> ,,,
# The lines below this comment are in groups of 2.,,,,,,,,,,
# The formats of the lines in each of these groups are as follows:,,,,,,,,,,
#,,,,,,,,,,
# Line 1:,,,,,,,,,,
#     Col. 1: Time results were received.,,,,,,,,,,
#     Col. 2: MD5 hash of participant's IP address.,,,,,,,,,,
#     Col. 3: Controller name.,,,,,,,,,,
#     Col. 4: Item number.,,,,,,,,,,
#     Col. 5: Element number.,,,,,,,,,,
#     Col. 6: Type.,,,,,,,,,,
#     Col. 7: Group.,,,,,,,,,,
#     Col. 8: Sentence (or sentence MD5).,,,,,,,,,,
# Line 2:,,,,,,,,,,
#     Col. 1: Time results were received.,,,,,,,,,,
#     Col. 2: MD5 hash of participant's IP address.,,,,,,,,,,
#     Col. 3: Controller name.,,,,,,,,,,
#     Col. 4: Item number.,,,,,,,,,,
#     Col. 5: Element number.,,,,,,,,,,
#     Col. 6: Type.,,,,,,,,,,
#     Col. 7: Group.,,,,,,,,,,
#     Col. 8: html.,,,,,,,,,,
#     Col. 9: startValue.,,,,,,,,,,
#     Col. 10: endValue.,,,,,,,,,,
#     Col. 11: value.,,,,,,,,,,
1606234273,2d1e300a125078f8ad22cbcfcec27ce8,SingleSlider,8,0,control.ant,2, <br> <p>How surprised would you be to learn during the interview that ...?</p> ,,,
1606234273,2d1e300a125078f8ad22cbcfcec27ce8,SingleSlider,8,0,control.ant,2,<b>Eva is a flepper.</b> ,0,100,0
# The lines below this comment are in groups of 2.,,,,,,,,,,
# The formats of the lines in each of these groups are as follows:,,,,,,,,,,
#,,,,,,,,,,
# Line 1:,,,,,,,,,,
#     Col. 1: Time results were received.,,,,,,,,,,
#     Col. 2: MD5 hash of participant's IP address.,,,,,,,,,,
#     Col. 3: Controller name.,,,,,,,,,,
#     Col. 4: Item number.,,,,,,,,,,
#     Col. 5: Element number.,,,,,,,,,,
#     Col. 6: Type.,,,,,,,,,,
#     Col. 7: Group.,,,,,,,,,,
#     Col. 8: Field name.,,,,,,,,,,
#     Col. 9: Field value.,,,,,,,,,,
# Line 2:,,,,,,,,,,
#     Col. 1: Time results were received.,,,,,,,,,,
#     Col. 2: MD5 hash of participant's IP address.,,,,,,,,,,
#     Col. 3: Controller name.,,,,,,,,,,
#     Col. 4: Item number.,,,,,,,,,,
#     Col. 5: Element number.,,,,,,,,,,
#     Col. 6: Type.,,,,,,,,,,
#     Col. 7: Group.,,,,,,,,,,
#     Col. 8: Sentence (or sentence MD5).,,,,,,,,,,
1606234273,2d1e300a125078f8ad22cbcfcec27ce8,AY_Form_inst,9,0,null.presup,3,_REACTION_TIME_,1521,,
1606234273,2d1e300a125078f8ad22cbcfcec27ce8,SingleSlider,9,1,null.presup,3,<p>On this planet%2C some aliens are gogopos and some aliens are not gogopos.</p> <p><b>You notice the word 'dord' on a guidebook%2C but no one explains it to you.</b></p> <p>You are about to interview Diane%2C an alien from this planet. The information you've collected about Diane so far suggests this: <b>If Diane is a gogopo%2C she will yapple her dord.</b></p> ,,,
# The lines below this comment are in groups of 2.,,,,,,,,,,
# The formats of the lines in each of these groups are as follows:,,,,,,,,,,
#,,,,,,,,,,
# Line 1:,,,,,,,,,,
#     Col. 1: Time results were received.,,,,,,,,,,
#     Col. 2: MD5 hash of participant's IP address.,,,,,,,,,,
#     Col. 3: Controller name.,,,,,,,,,,
#     Col. 4: Item number.,,,,,,,,,,
#     Col. 5: Element number.,,,,,,,,,,
#     Col. 6: Type.,,,,,,,,,,
#     Col. 7: Group.,,,,,,,,,,
#     Col. 8: Sentence (or sentence MD5).,,,,,,,,,,
# Line 2:,,,,,,,,,,
#     Col. 1: Time results were received.,,,,,,,,,,
#     Col. 2: MD5 hash of participant's IP address.,,,,,,,,,,
#     Col. 3: Controller name.,,,,,,,,,,
#     Col. 4: Item number.,,,,,,,,,,
#     Col. 5: Element number.,,,,,,,,,,
#     Col. 6: Type.,,,,,,,,,,
#     Col. 7: Group.,,,,,,,,,,
#     Col. 8: html.,,,,,,,,,,
#     Col. 9: startValue.,,,,,,,,,,
#     Col. 10: endValue.,,,,,,,,,,
#     Col. 11: value.,,,,,,,,,,
1606234273,2d1e300a125078f8ad22cbcfcec27ce8,SingleSlider,9,1,null.presup,3, <br> <p>How surprised would you be to learn during the interview that ...?</p> ,,,
1606234273,2d1e300a125078f8ad22cbcfcec27ce8,SingleSlider,9,1,null.presup,3,<b>Diane doesn't have a dord.</b> ,0,100,100
# Columns below this comment are as follows:,,,,,,,,,,
# 1. Time results were received.,,,,,,,,,,
# 2. MD5 hash of participant's IP address.,,,,,,,,,,
# 3. Controller name.,,,,,,,,,,
# 4. Item number.,,,,,,,,,,
# 5. Element number.,,,,,,,,,,
# 6. Type.,,,,,,,,,,
# 7. Group.,,,,,,,,,,
# 8. Sentence (or sentence MD5).,,,,,,,,,,
1606234273,2d1e300a125078f8ad22cbcfcec27ce8,SingleSlider,10,0,null.ant,4,<p>On this planet%2C some aliens are gogopos and some aliens are not gogopos.</p> <p><b>You notice the word 'dord' on a guidebook%2C but no one explains it to you.</b></p> <p>You are about to interview Diane%2C an alien from this planet. The information you've collected about Diane so far suggests this: <b>If Diane is a gogopo%2C she will yapple her dord.</b></p> ,,,
1606234273,2d1e300a125078f8ad22cbcfcec27ce8,SingleSlider,10,0,null.ant,4, <br> <p>How surprised would you be to learn during the interview that ...?</p> ,,,
# The lines below this comment are in groups of 2.,,,,,,,,,,
# The formats of the lines in each of these groups are as follows:,,,,,,,,,,
#,,,,,,,,,,
# Line 1:,,,,,,,,,,
#     Col. 1: Time results were received.,,,,,,,,,,
#     Col. 2: MD5 hash of participant's IP address.,,,,,,,,,,
#     Col. 3: Controller name.,,,,,,,,,,
#     Col. 4: Item number.,,,,,,,,,,
#     Col. 5: Element number.,,,,,,,,,,
#     Col. 6: Type.,,,,,,,,,,
#     Col. 7: Group.,,,,,,,,,,
#     Col. 8: html.,,,,,,,,,,
#     Col. 9: startValue.,,,,,,,,,,
#     Col. 10: endValue.,,,,,,,,,,
#     Col. 11: value.,,,,,,,,,,
# Line 2:,,,,,,,,,,
#     Col. 1: Time results were received.,,,,,,,,,,
#     Col. 2: MD5 hash of participant's IP address.,,,,,,,,,,
#     Col. 3: Controller name.,,,,,,,,,,
#     Col. 4: Item number.,,,,,,,,,,
#     Col. 5: Element number.,,,,,,,,,,
#     Col. 6: Type.,,,,,,,,,,
#     Col. 7: Group.,,,,,,,,,,
#     Col. 8: Field name.,,,,,,,,,,
#     Col. 9: Field value.,,,,,,,,,,
1606234273,2d1e300a125078f8ad22cbcfcec27ce8,SingleSlider,10,0,null.ant,4,<b>Diane is a gogopo.</b> ,0,100,40
1606234273,2d1e300a125078f8ad22cbcfcec27ce8,Form,5,0,exit,NULL,comment,,,
# Columns below this comment are as follows:,,,,,,,,,,
# 1. Time results were received.,,,,,,,,,,
# 2. MD5 hash of participant's IP address.,,,,,,,,,,
# 3. Controller name.,,,,,,,,,,
# 4. Item number.,,,,,,,,,,
# 5. Element number.,,,,,,,,,,
# 6. Type.,,,,,,,,,,
# 7. Group.,,,,,,,,,,
# 8. Field name.,,,,,,,,,,
# 9. Field value.,,,,,,,,,,
1606234273,2d1e300a125078f8ad22cbcfcec27ce8,Form,5,0,exit,NULL,_REACTION_TIME_,1398,,
#,,,,,,,,,,
# Results on Tuesday November 24 2020 16:11:34 UTC.,,,,,,,,,,
# USER AGENT: Mozilla/5.0 (X11; CrOS x86_64 13310.100.0) AppleWebKit/537.36 (KHTML, like Gecko) Chrome/85.0.4183.140 Safari/537.36,,,,,,,,,
# Design number was non-random = 0,,,,,,,,,,
#,,,,,,,,,,
# Columns below this comment are as follows:,,,,,,,,,,
# 1. Time results were received.,,,,,,,,,,
# 2. MD5 hash of participant's IP address.,,,,,,,,,,
# 3. Controller name.,,,,,,,,,,
# 4. Item number.,,,,,,,,,,
# 5. Element number.,,,,,,,,,,
# 6. Type.,,,,,,,,,,
# 7. Group.,,,,,,,,,,
# 8. Field name.,,,,,,,,,,
# 9. Field value.,,,,,,,,,,
1606234294,11db23dc88e15f34ba45099823fd083d,Form,1,0,consent,NULL,consent,yes,,
1606234294,11db23dc88e15f34ba45099823fd083d,Form,1,0,consent,NULL,_REACTION_TIME_,3224,,
1606234294,11db23dc88e15f34ba45099823fd083d,Form,2,0,0_info,NULL,age,42,,
1606234294,11db23dc88e15f34ba45099823fd083d,Form,2,0,0_info,NULL,natlang,English,,
1606234294,11db23dc88e15f34ba45099823fd083d,Form,2,0,0_info,NULL,state,Missouri,,
1606234294,11db23dc88e15f34ba45099823fd083d,Form,2,0,0_info,NULL,parentlang,English,,
1606234294,11db23dc88e15f34ba45099823fd083d,Form,2,0,0_info,NULL,domlang,English,,
1606234294,11db23dc88e15f34ba45099823fd083d,Form,2,0,0_info,NULL,otherlang,None,,
1606234294,11db23dc88e15f34ba45099823fd083d,Form,2,0,0_info,NULL,ID,A15PHPJA7AWCS3,,
1606234294,11db23dc88e15f34ba45099823fd083d,Form,2,0,0_info,NULL,_REACTION_TIME_,25239,,
1606234294,11db23dc88e15f34ba45099823fd083d,Form,3,0,intro1,NULL,_REACTION_TIME_,8068,,
1606234294,11db23dc88e15f34ba45099823fd083d,Form,4,0,intro2,NULL,_REACTION_TIME_,21208,,
1606234294,11db23dc88e15f34ba45099823fd083d,AY_Form_inst,7,0,control.presup,1,_REACTION_TIME_,5455,,
# Columns below this comment are as follows:,,,,,,,,,,
# 1. Time results were received.,,,,,,,,,,
# 2. MD5 hash of participant's IP address.,,,,,,,,,,
# 3. Controller name.,,,,,,,,,,
# 4. Item number.,,,,,,,,,,
# 5. Element number.,,,,,,,,,,
# 6. Type.,,,,,,,,,,
# 7. Group.,,,,,,,,,,
# 8. Sentence (or sentence MD5).,,,,,,,,,,
1606234294,11db23dc88e15f34ba45099823fd083d,SingleSlider,7,1,control.presup,1,<p>On this planet%2C some aliens are fleppers and some aliens are not fleppers.</p> <p><b>You overhear a few aliens talking about lammoring%2C but you don't understand it.</b></p> <p>You are about to interview Eva%2C an alien from this planet. The information you've collected about Eva so far suggests this: <b>Eva is a flepper%2C and she likes to lammor.</b></p> ,,,
1606234294,11db23dc88e15f34ba45099823fd083d,SingleSlider,7,1,control.presup,1, <br> <p>How surprised would you be to learn during the interview that ...?</p> ,,,
# The lines below this comment are in groups of 2.,,,,,,,,,,
# The formats of the lines in each of these groups are as follows:,,,,,,,,,,
#,,,,,,,,,,
# Line 1:,,,,,,,,,,
#     Col. 1: Time results were received.,,,,,,,,,,
#     Col. 2: MD5 hash of participant's IP address.,,,,,,,,,,
#     Col. 3: Controller name.,,,,,,,,,,
#     Col. 4: Item number.,,,,,,,,,,
#     Col. 5: Element number.,,,,,,,,,,
#     Col. 6: Type.,,,,,,,,,,
#     Col. 7: Group.,,,,,,,,,,
#     Col. 8: html.,,,,,,,,,,
#     Col. 9: startValue.,,,,,,,,,,
#     Col. 10: endValue.,,,,,,,,,,
#     Col. 11: value.,,,,,,,,,,
# Line 2:,,,,,,,,,,
#     Col. 1: Time results were received.,,,,,,,,,,
#     Col. 2: MD5 hash of participant's IP address.,,,,,,,,,,
#     Col. 3: Controller name.,,,,,,,,,,
#     Col. 4: Item number.,,,,,,,,,,
#     Col. 5: Element number.,,,,,,,,,,
#     Col. 6: Type.,,,,,,,,,,
#     Col. 7: Group.,,,,,,,,,,
#     Col. 8: Sentence (or sentence MD5).,,,,,,,,,,
1606234294,11db23dc88e15f34ba45099823fd083d,SingleSlider,7,1,control.presup,1,<b>Eva doesn't like to lammor.</b> ,0,100,100
1606234294,11db23dc88e15f34ba45099823fd083d,SingleSlider,8,0,control.ant,2,<p>On this planet%2C some aliens are fleppers and some aliens are not fleppers.</p> <p><b>You overhear a few aliens talking about lammoring%2C but you don't understand it.</b></p> <p>You are about to interview Eva%2C an alien from this planet. The information you've collected about Eva so far suggests this: <b>Eva is a flepper%2C and she likes to lammor.</b></p> ,,,
# The lines below this comment are in groups of 2.,,,,,,,,,,
# The formats of the lines in each of these groups are as follows:,,,,,,,,,,
#,,,,,,,,,,
# Line 1:,,,,,,,,,,
#     Col. 1: Time results were received.,,,,,,,,,,
#     Col. 2: MD5 hash of participant's IP address.,,,,,,,,,,
#     Col. 3: Controller name.,,,,,,,,,,
#     Col. 4: Item number.,,,,,,,,,,
#     Col. 5: Element number.,,,,,,,,,,
#     Col. 6: Type.,,,,,,,,,,
#     Col. 7: Group.,,,,,,,,,,
#     Col. 8: Sentence (or sentence MD5).,,,,,,,,,,
# Line 2:,,,,,,,,,,
#     Col. 1: Time results were received.,,,,,,,,,,
#     Col. 2: MD5 hash of participant's IP address.,,,,,,,,,,
#     Col. 3: Controller name.,,,,,,,,,,
#     Col. 4: Item number.,,,,,,,,,,
#     Col. 5: Element number.,,,,,,,,,,
#     Col. 6: Type.,,,,,,,,,,
#     Col. 7: Group.,,,,,,,,,,
#     Col. 8: html.,,,,,,,,,,
#     Col. 9: startValue.,,,,,,,,,,
#     Col. 10: endValue.,,,,,,,,,,
#     Col. 11: value.,,,,,,,,,,
1606234294,11db23dc88e15f34ba45099823fd083d,SingleSlider,8,0,control.ant,2, <br> <p>How surprised would you be to learn during the interview that ...?</p> ,,,
1606234294,11db23dc88e15f34ba45099823fd083d,SingleSlider,8,0,control.ant,2,<b>Eva is a flepper.</b> ,0,100,0
# The lines below this comment are in groups of 2.,,,,,,,,,,
# The formats of the lines in each of these groups are as follows:,,,,,,,,,,
#,,,,,,,,,,
# Line 1:,,,,,,,,,,
#     Col. 1: Time results were received.,,,,,,,,,,
#     Col. 2: MD5 hash of participant's IP address.,,,,,,,,,,
#     Col. 3: Controller name.,,,,,,,,,,
#     Col. 4: Item number.,,,,,,,,,,
#     Col. 5: Element number.,,,,,,,,,,
#     Col. 6: Type.,,,,,,,,,,
#     Col. 7: Group.,,,,,,,,,,
#     Col. 8: Field name.,,,,,,,,,,
#     Col. 9: Field value.,,,,,,,,,,
# Line 2:,,,,,,,,,,
#     Col. 1: Time results were received.,,,,,,,,,,
#     Col. 2: MD5 hash of participant's IP address.,,,,,,,,,,
#     Col. 3: Controller name.,,,,,,,,,,
#     Col. 4: Item number.,,,,,,,,,,
#     Col. 5: Element number.,,,,,,,,,,
#     Col. 6: Type.,,,,,,,,,,
#     Col. 7: Group.,,,,,,,,,,
#     Col. 8: Sentence (or sentence MD5).,,,,,,,,,,
1606234294,11db23dc88e15f34ba45099823fd083d,AY_Form_inst,9,0,null.presup,3,_REACTION_TIME_,2593,,
1606234294,11db23dc88e15f34ba45099823fd083d,SingleSlider,9,1,null.presup,3,<p>On this planet%2C some aliens are gogopos and some aliens are not gogopos.</p> <p><b>You notice the word 'dord' on a guidebook%2C but no one explains it to you.</b></p> <p>You are about to interview Diane%2C an alien from this planet. The information you've collected about Diane so far suggests this: <b>If Diane is a gogopo%2C she will yapple her dord.</b></p> ,,,
# The lines below this comment are in groups of 2.,,,,,,,,,,
# The formats of the lines in each of these groups are as follows:,,,,,,,,,,
#,,,,,,,,,,
# Line 1:,,,,,,,,,,
#     Col. 1: Time results were received.,,,,,,,,,,
#     Col. 2: MD5 hash of participant's IP address.,,,,,,,,,,
#     Col. 3: Controller name.,,,,,,,,,,
#     Col. 4: Item number.,,,,,,,,,,
#     Col. 5: Element number.,,,,,,,,,,
#     Col. 6: Type.,,,,,,,,,,
#     Col. 7: Group.,,,,,,,,,,
#     Col. 8: Sentence (or sentence MD5).,,,,,,,,,,
# Line 2:,,,,,,,,,,
#     Col. 1: Time results were received.,,,,,,,,,,
#     Col. 2: MD5 hash of participant's IP address.,,,,,,,,,,
#     Col. 3: Controller name.,,,,,,,,,,
#     Col. 4: Item number.,,,,,,,,,,
#     Col. 5: Element number.,,,,,,,,,,
#     Col. 6: Type.,,,,,,,,,,
#     Col. 7: Group.,,,,,,,,,,
#     Col. 8: html.,,,,,,,,,,
#     Col. 9: startValue.,,,,,,,,,,
#     Col. 10: endValue.,,,,,,,,,,
#     Col. 11: value.,,,,,,,,,,
1606234294,11db23dc88e15f34ba45099823fd083d,SingleSlider,9,1,null.presup,3, <br> <p>How surprised would you be to learn during the interview that ...?</p> ,,,
1606234294,11db23dc88e15f34ba45099823fd083d,SingleSlider,9,1,null.presup,3,<b>Diane doesn't have a dord.</b> ,0,100,50
# Columns below this comment are as follows:,,,,,,,,,,
# 1. Time results were received.,,,,,,,,,,
# 2. MD5 hash of participant's IP address.,,,,,,,,,,
# 3. Controller name.,,,,,,,,,,
# 4. Item number.,,,,,,,,,,
# 5. Element number.,,,,,,,,,,
# 6. Type.,,,,,,,,,,
# 7. Group.,,,,,,,,,,
# 8. Sentence (or sentence MD5).,,,,,,,,,,
1606234294,11db23dc88e15f34ba45099823fd083d,SingleSlider,10,0,null.ant,4,<p>On this planet%2C some aliens are gogopos and some aliens are not gogopos.</p> <p><b>You notice the word 'dord' on a guidebook%2C but no one explains it to you.</b></p> <p>You are about to interview Diane%2C an alien from this planet. The information you've collected about Diane so far suggests this: <b>If Diane is a gogopo%2C she will yapple her dord.</b></p> ,,,
1606234294,11db23dc88e15f34ba45099823fd083d,SingleSlider,10,0,null.ant,4, <br> <p>How surprised would you be to learn during the interview that ...?</p> ,,,
# The lines below this comment are in groups of 2.,,,,,,,,,,
# The formats of the lines in each of these groups are as follows:,,,,,,,,,,
#,,,,,,,,,,
# Line 1:,,,,,,,,,,
#     Col. 1: Time results were received.,,,,,,,,,,
#     Col. 2: MD5 hash of participant's IP address.,,,,,,,,,,
#     Col. 3: Controller name.,,,,,,,,,,
#     Col. 4: Item number.,,,,,,,,,,
#     Col. 5: Element number.,,,,,,,,,,
#     Col. 6: Type.,,,,,,,,,,
#     Col. 7: Group.,,,,,,,,,,
#     Col. 8: html.,,,,,,,,,,
#     Col. 9: startValue.,,,,,,,,,,
#     Col. 10: endValue.,,,,,,,,,,
#     Col. 11: value.,,,,,,,,,,
# Line 2:,,,,,,,,,,
#     Col. 1: Time results were received.,,,,,,,,,,
#     Col. 2: MD5 hash of participant's IP address.,,,,,,,,,,
#     Col. 3: Controller name.,,,,,,,,,,
#     Col. 4: Item number.,,,,,,,,,,
#     Col. 5: Element number.,,,,,,,,,,
#     Col. 6: Type.,,,,,,,,,,
#     Col. 7: Group.,,,,,,,,,,
#     Col. 8: Field name.,,,,,,,,,,
#     Col. 9: Field value.,,,,,,,,,,
1606234294,11db23dc88e15f34ba45099823fd083d,SingleSlider,10,0,null.ant,4,<b>Diane is a gogopo.</b> ,0,100,50
1606234294,11db23dc88e15f34ba45099823fd083d,Form,5,0,exit,NULL,comment,,,
# Columns below this comment are as follows:,,,,,,,,,,
# 1. Time results were received.,,,,,,,,,,
# 2. MD5 hash of participant's IP address.,,,,,,,,,,
# 3. Controller name.,,,,,,,,,,
# 4. Item number.,,,,,,,,,,
# 5. Element number.,,,,,,,,,,
# 6. Type.,,,,,,,,,,
# 7. Group.,,,,,,,,,,
# 8. Field name.,,,,,,,,,,
# 9. Field value.,,,,,,,,,,
1606234294,11db23dc88e15f34ba45099823fd083d,Form,5,0,exit,NULL,_REACTION_TIME_,1685,,
#,,,,,,,,,,
# Results on Tuesday November 24 2020 16:12:28 UTC.,,,,,,,,,,
# USER AGENT: Mozilla/5.0 (Windows NT 10.0; Win64; x64) AppleWebKit/537.36 (KHTML, like Gecko) Chrome/87.0.4280.66 Safari/537.36,,,,,,,,,
# Design number was non-random = 0,,,,,,,,,,
#,,,,,,,,,,
# Columns below this comment are as follows:,,,,,,,,,,
# 1. Time results were received.,,,,,,,,,,
# 2. MD5 hash of participant's IP address.,,,,,,,,,,
# 3. Controller name.,,,,,,,,,,
# 4. Item number.,,,,,,,,,,
# 5. Element number.,,,,,,,,,,
# 6. Type.,,,,,,,,,,
# 7. Group.,,,,,,,,,,
# 8. Field name.,,,,,,,,,,
# 9. Field value.,,,,,,,,,,
1606234349,ad28bbbec34cf4f38097dc0c0b93369c,Form,1,0,consent,NULL,consent,yes,,
1606234349,ad28bbbec34cf4f38097dc0c0b93369c,Form,1,0,consent,NULL,_REACTION_TIME_,2810,,
1606234349,ad28bbbec34cf4f38097dc0c0b93369c,Form,2,0,0_info,NULL,age,37,,
1606234349,ad28bbbec34cf4f38097dc0c0b93369c,Form,2,0,0_info,NULL,natlang,English,,
1606234349,ad28bbbec34cf4f38097dc0c0b93369c,Form,2,0,0_info,NULL,state,Indiana,,
1606234349,ad28bbbec34cf4f38097dc0c0b93369c,Form,2,0,0_info,NULL,parentlang,English,,
1606234349,ad28bbbec34cf4f38097dc0c0b93369c,Form,2,0,0_info,NULL,domlang,English,,
1606234349,ad28bbbec34cf4f38097dc0c0b93369c,Form,2,0,0_info,NULL,otherlang,No,,
1606234349,ad28bbbec34cf4f38097dc0c0b93369c,Form,2,0,0_info,NULL,ID,A3C9PTN49QTVFN,,
1606234349,ad28bbbec34cf4f38097dc0c0b93369c,Form,2,0,0_info,NULL,_REACTION_TIME_,23061,,
1606234349,ad28bbbec34cf4f38097dc0c0b93369c,Form,3,0,intro1,NULL,_REACTION_TIME_,11303,,
1606234349,ad28bbbec34cf4f38097dc0c0b93369c,Form,4,0,intro2,NULL,_REACTION_TIME_,33346,,
1606234349,ad28bbbec34cf4f38097dc0c0b93369c,AY_Form_inst,7,0,control.presup,1,_REACTION_TIME_,3854,,
# Columns below this comment are as follows:,,,,,,,,,,
# 1. Time results were received.,,,,,,,,,,
# 2. MD5 hash of participant's IP address.,,,,,,,,,,
# 3. Controller name.,,,,,,,,,,
# 4. Item number.,,,,,,,,,,
# 5. Element number.,,,,,,,,,,
# 6. Type.,,,,,,,,,,
# 7. Group.,,,,,,,,,,
# 8. Sentence (or sentence MD5).,,,,,,,,,,
1606234349,ad28bbbec34cf4f38097dc0c0b93369c,SingleSlider,7,1,control.presup,1,<p>On this planet%2C some aliens are fleppers and some aliens are not fleppers.</p> <p><b>You overhear a few aliens talking about lammoring%2C but you don't understand it.</b></p> <p>You are about to interview Eva%2C an alien from this planet. The information you've collected about Eva so far suggests this: <b>Eva is a flepper%2C and she likes to lammor.</b></p> ,,,
1606234349,ad28bbbec34cf4f38097dc0c0b93369c,SingleSlider,7,1,control.presup,1, <br> <p>How surprised would you be to learn during the interview that ...?</p> ,,,
# The lines below this comment are in groups of 2.,,,,,,,,,,
# The formats of the lines in each of these groups are as follows:,,,,,,,,,,
#,,,,,,,,,,
# Line 1:,,,,,,,,,,
#     Col. 1: Time results were received.,,,,,,,,,,
#     Col. 2: MD5 hash of participant's IP address.,,,,,,,,,,
#     Col. 3: Controller name.,,,,,,,,,,
#     Col. 4: Item number.,,,,,,,,,,
#     Col. 5: Element number.,,,,,,,,,,
#     Col. 6: Type.,,,,,,,,,,
#     Col. 7: Group.,,,,,,,,,,
#     Col. 8: html.,,,,,,,,,,
#     Col. 9: startValue.,,,,,,,,,,
#     Col. 10: endValue.,,,,,,,,,,
#     Col. 11: value.,,,,,,,,,,
# Line 2:,,,,,,,,,,
#     Col. 1: Time results were received.,,,,,,,,,,
#     Col. 2: MD5 hash of participant's IP address.,,,,,,,,,,
#     Col. 3: Controller name.,,,,,,,,,,
#     Col. 4: Item number.,,,,,,,,,,
#     Col. 5: Element number.,,,,,,,,,,
#     Col. 6: Type.,,,,,,,,,,
#     Col. 7: Group.,,,,,,,,,,
#     Col. 8: Sentence (or sentence MD5).,,,,,,,,,,
1606234349,ad28bbbec34cf4f38097dc0c0b93369c,SingleSlider,7,1,control.presup,1,<b>Eva doesn't like to lammor.</b> ,0,100,22.33
1606234349,ad28bbbec34cf4f38097dc0c0b93369c,SingleSlider,8,0,control.ant,2,<p>On this planet%2C some aliens are fleppers and some aliens are not fleppers.</p> <p><b>You overhear a few aliens talking about lammoring%2C but you don't understand it.</b></p> <p>You are about to interview Eva%2C an alien from this planet. The information you've collected about Eva so far suggests this: <b>Eva is a flepper%2C and she likes to lammor.</b></p> ,,,
# The lines below this comment are in groups of 2.,,,,,,,,,,
# The formats of the lines in each of these groups are as follows:,,,,,,,,,,
#,,,,,,,,,,
# Line 1:,,,,,,,,,,
#     Col. 1: Time results were received.,,,,,,,,,,
#     Col. 2: MD5 hash of participant's IP address.,,,,,,,,,,
#     Col. 3: Controller name.,,,,,,,,,,
#     Col. 4: Item number.,,,,,,,,,,
#     Col. 5: Element number.,,,,,,,,,,
#     Col. 6: Type.,,,,,,,,,,
#     Col. 7: Group.,,,,,,,,,,
#     Col. 8: Sentence (or sentence MD5).,,,,,,,,,,
# Line 2:,,,,,,,,,,
#     Col. 1: Time results were received.,,,,,,,,,,
#     Col. 2: MD5 hash of participant's IP address.,,,,,,,,,,
#     Col. 3: Controller name.,,,,,,,,,,
#     Col. 4: Item number.,,,,,,,,,,
#     Col. 5: Element number.,,,,,,,,,,
#     Col. 6: Type.,,,,,,,,,,
#     Col. 7: Group.,,,,,,,,,,
#     Col. 8: html.,,,,,,,,,,
#     Col. 9: startValue.,,,,,,,,,,
#     Col. 10: endValue.,,,,,,,,,,
#     Col. 11: value.,,,,,,,,,,
1606234349,ad28bbbec34cf4f38097dc0c0b93369c,SingleSlider,8,0,control.ant,2, <br> <p>How surprised would you be to learn during the interview that ...?</p> ,,,
1606234349,ad28bbbec34cf4f38097dc0c0b93369c,SingleSlider,8,0,control.ant,2,<b>Eva is a flepper.</b> ,0,100,10.33
# The lines below this comment are in groups of 2.,,,,,,,,,,
# The formats of the lines in each of these groups are as follows:,,,,,,,,,,
#,,,,,,,,,,
# Line 1:,,,,,,,,,,
#     Col. 1: Time results were received.,,,,,,,,,,
#     Col. 2: MD5 hash of participant's IP address.,,,,,,,,,,
#     Col. 3: Controller name.,,,,,,,,,,
#     Col. 4: Item number.,,,,,,,,,,
#     Col. 5: Element number.,,,,,,,,,,
#     Col. 6: Type.,,,,,,,,,,
#     Col. 7: Group.,,,,,,,,,,
#     Col. 8: Field name.,,,,,,,,,,
#     Col. 9: Field value.,,,,,,,,,,
# Line 2:,,,,,,,,,,
#     Col. 1: Time results were received.,,,,,,,,,,
#     Col. 2: MD5 hash of participant's IP address.,,,,,,,,,,
#     Col. 3: Controller name.,,,,,,,,,,
#     Col. 4: Item number.,,,,,,,,,,
#     Col. 5: Element number.,,,,,,,,,,
#     Col. 6: Type.,,,,,,,,,,
#     Col. 7: Group.,,,,,,,,,,
#     Col. 8: Sentence (or sentence MD5).,,,,,,,,,,
1606234349,ad28bbbec34cf4f38097dc0c0b93369c,AY_Form_inst,9,0,null.presup,3,_REACTION_TIME_,1345,,
1606234349,ad28bbbec34cf4f38097dc0c0b93369c,SingleSlider,9,1,null.presup,3,<p>On this planet%2C some aliens are gogopos and some aliens are not gogopos.</p> <p><b>You notice the word 'dord' on a guidebook%2C but no one explains it to you.</b></p> <p>You are about to interview Diane%2C an alien from this planet. The information you've collected about Diane so far suggests this: <b>If Diane is a gogopo%2C she will yapple her dord.</b></p> ,,,
# The lines below this comment are in groups of 2.,,,,,,,,,,
# The formats of the lines in each of these groups are as follows:,,,,,,,,,,
#,,,,,,,,,,
# Line 1:,,,,,,,,,,
#     Col. 1: Time results were received.,,,,,,,,,,
#     Col. 2: MD5 hash of participant's IP address.,,,,,,,,,,
#     Col. 3: Controller name.,,,,,,,,,,
#     Col. 4: Item number.,,,,,,,,,,
#     Col. 5: Element number.,,,,,,,,,,
#     Col. 6: Type.,,,,,,,,,,
#     Col. 7: Group.,,,,,,,,,,
#     Col. 8: Sentence (or sentence MD5).,,,,,,,,,,
# Line 2:,,,,,,,,,,
#     Col. 1: Time results were received.,,,,,,,,,,
#     Col. 2: MD5 hash of participant's IP address.,,,,,,,,,,
#     Col. 3: Controller name.,,,,,,,,,,
#     Col. 4: Item number.,,,,,,,,,,
#     Col. 5: Element number.,,,,,,,,,,
#     Col. 6: Type.,,,,,,,,,,
#     Col. 7: Group.,,,,,,,,,,
#     Col. 8: html.,,,,,,,,,,
#     Col. 9: startValue.,,,,,,,,,,
#     Col. 10: endValue.,,,,,,,,,,
#     Col. 11: value.,,,,,,,,,,
1606234349,ad28bbbec34cf4f38097dc0c0b93369c,SingleSlider,9,1,null.presup,3, <br> <p>How surprised would you be to learn during the interview that ...?</p> ,,,
1606234349,ad28bbbec34cf4f38097dc0c0b93369c,SingleSlider,9,1,null.presup,3,<b>Diane doesn't have a dord.</b> ,0,100,43.67
# Columns below this comment are as follows:,,,,,,,,,,
# 1. Time results were received.,,,,,,,,,,
# 2. MD5 hash of participant's IP address.,,,,,,,,,,
# 3. Controller name.,,,,,,,,,,
# 4. Item number.,,,,,,,,,,
# 5. Element number.,,,,,,,,,,
# 6. Type.,,,,,,,,,,
# 7. Group.,,,,,,,,,,
# 8. Sentence (or sentence MD5).,,,,,,,,,,
1606234349,ad28bbbec34cf4f38097dc0c0b93369c,SingleSlider,10,0,null.ant,4,<p>On this planet%2C some aliens are gogopos and some aliens are not gogopos.</p> <p><b>You notice the word 'dord' on a guidebook%2C but no one explains it to you.</b></p> <p>You are about to interview Diane%2C an alien from this planet. The information you've collected about Diane so far suggests this: <b>If Diane is a gogopo%2C she will yapple her dord.</b></p> ,,,
1606234349,ad28bbbec34cf4f38097dc0c0b93369c,SingleSlider,10,0,null.ant,4, <br> <p>How surprised would you be to learn during the interview that ...?</p> ,,,
# The lines below this comment are in groups of 2.,,,,,,,,,,
# The formats of the lines in each of these groups are as follows:,,,,,,,,,,
#,,,,,,,,,,
# Line 1:,,,,,,,,,,
#     Col. 1: Time results were received.,,,,,,,,,,
#     Col. 2: MD5 hash of participant's IP address.,,,,,,,,,,
#     Col. 3: Controller name.,,,,,,,,,,
#     Col. 4: Item number.,,,,,,,,,,
#     Col. 5: Element number.,,,,,,,,,,
#     Col. 6: Type.,,,,,,,,,,
#     Col. 7: Group.,,,,,,,,,,
#     Col. 8: html.,,,,,,,,,,
#     Col. 9: startValue.,,,,,,,,,,
#     Col. 10: endValue.,,,,,,,,,,
#     Col. 11: value.,,,,,,,,,,
# Line 2:,,,,,,,,,,
#     Col. 1: Time results were received.,,,,,,,,,,
#     Col. 2: MD5 hash of participant's IP address.,,,,,,,,,,
#     Col. 3: Controller name.,,,,,,,,,,
#     Col. 4: Item number.,,,,,,,,,,
#     Col. 5: Element number.,,,,,,,,,,
#     Col. 6: Type.,,,,,,,,,,
#     Col. 7: Group.,,,,,,,,,,
#     Col. 8: Field name.,,,,,,,,,,
#     Col. 9: Field value.,,,,,,,,,,
1606234349,ad28bbbec34cf4f38097dc0c0b93369c,SingleSlider,10,0,null.ant,4,<b>Diane is a gogopo.</b> ,0,100,7.33
1606234349,ad28bbbec34cf4f38097dc0c0b93369c,Form,5,0,exit,NULL,comment,,,
# Columns below this comment are as follows:,,,,,,,,,,
# 1. Time results were received.,,,,,,,,,,
# 2. MD5 hash of participant's IP address.,,,,,,,,,,
# 3. Controller name.,,,,,,,,,,
# 4. Item number.,,,,,,,,,,
# 5. Element number.,,,,,,,,,,
# 6. Type.,,,,,,,,,,
# 7. Group.,,,,,,,,,,
# 8. Field name.,,,,,,,,,,
# 9. Field value.,,,,,,,,,,
1606234349,ad28bbbec34cf4f38097dc0c0b93369c,Form,5,0,exit,NULL,_REACTION_TIME_,1773,,
#,,,,,,,,,,
# Results on Tuesday November 24 2020 16:15:14 UTC.,,,,,,,,,,
# USER AGENT: Mozilla/5.0 (Macintosh; Intel Mac OS X 10_15_7) AppleWebKit/537.36 (KHTML, like Gecko) Chrome/86.0.4240.198 Safari/537.36,,,,,,,,,
# Design number was non-random = 5,,,,,,,,,,
#,,,,,,,,,,
# Columns below this comment are as follows:,,,,,,,,,,
# 1. Time results were received.,,,,,,,,,,
# 2. MD5 hash of participant's IP address.,,,,,,,,,,
# 3. Controller name.,,,,,,,,,,
# 4. Item number.,,,,,,,,,,
# 5. Element number.,,,,,,,,,,
# 6. Type.,,,,,,,,,,
# 7. Group.,,,,,,,,,,
# 8. Field name.,,,,,,,,,,
# 9. Field value.,,,,,,,,,,
1606234515,06a738838c13bc4a47be44f5c9af9e71,Form,1,0,consent,NULL,consent,yes,,
1606234515,06a738838c13bc4a47be44f5c9af9e71,Form,1,0,consent,NULL,_REACTION_TIME_,2017,,
1606234515,06a738838c13bc4a47be44f5c9af9e71,Form,2,0,0_info,NULL,age,26,,
1606234515,06a738838c13bc4a47be44f5c9af9e71,Form,2,0,0_info,NULL,natlang,english,,
1606234515,06a738838c13bc4a47be44f5c9af9e71,Form,2,0,0_info,NULL,state,michigan,,
1606234515,06a738838c13bc4a47be44f5c9af9e71,Form,2,0,0_info,NULL,parentlang,english,,
1606234515,06a738838c13bc4a47be44f5c9af9e71,Form,2,0,0_info,NULL,domlang,english,,
1606234515,06a738838c13bc4a47be44f5c9af9e71,Form,2,0,0_info,NULL,otherlang,NA,,
1606234515,06a738838c13bc4a47be44f5c9af9e71,Form,2,0,0_info,NULL,ID,A2GZNOA5CIVKUB,,
1606234515,06a738838c13bc4a47be44f5c9af9e71,Form,2,0,0_info,NULL,_REACTION_TIME_,36091,,
1606234515,06a738838c13bc4a47be44f5c9af9e71,Form,3,0,intro1,NULL,_REACTION_TIME_,1400,,
1606234515,06a738838c13bc4a47be44f5c9af9e71,Form,4,0,intro2,NULL,_REACTION_TIME_,40213,,
1606234515,06a738838c13bc4a47be44f5c9af9e71,AY_Form_inst,7,0,control.presup,1,_REACTION_TIME_,2020,,
# Columns below this comment are as follows:,,,,,,,,,,
# 1. Time results were received.,,,,,,,,,,
# 2. MD5 hash of participant's IP address.,,,,,,,,,,
# 3. Controller name.,,,,,,,,,,
# 4. Item number.,,,,,,,,,,
# 5. Element number.,,,,,,,,,,
# 6. Type.,,,,,,,,,,
# 7. Group.,,,,,,,,,,
# 8. Sentence (or sentence MD5).,,,,,,,,,,
1606234515,06a738838c13bc4a47be44f5c9af9e71,SingleSlider,7,1,control.presup,1,<p>On this planet%2C some aliens are fleppers and some aliens are not fleppers.</p> <p><b>You overhear a few aliens talking about lammoring%2C but you don't understand it.</b></p> <p>You are about to interview Eva%2C an alien from this planet. The information you've collected about Eva so far suggests this: <b>Eva is a flepper%2C and she likes to lammor.</b></p> ,,,
1606234515,06a738838c13bc4a47be44f5c9af9e71,SingleSlider,7,1,control.presup,1, <br> <p>How surprised would you be to learn during the interview that ...?</p> ,,,
# The lines below this comment are in groups of 2.,,,,,,,,,,
# The formats of the lines in each of these groups are as follows:,,,,,,,,,,
#,,,,,,,,,,
# Line 1:,,,,,,,,,,
#     Col. 1: Time results were received.,,,,,,,,,,
#     Col. 2: MD5 hash of participant's IP address.,,,,,,,,,,
#     Col. 3: Controller name.,,,,,,,,,,
#     Col. 4: Item number.,,,,,,,,,,
#     Col. 5: Element number.,,,,,,,,,,
#     Col. 6: Type.,,,,,,,,,,
#     Col. 7: Group.,,,,,,,,,,
#     Col. 8: html.,,,,,,,,,,
#     Col. 9: startValue.,,,,,,,,,,
#     Col. 10: endValue.,,,,,,,,,,
#     Col. 11: value.,,,,,,,,,,
# Line 2:,,,,,,,,,,
#     Col. 1: Time results were received.,,,,,,,,,,
#     Col. 2: MD5 hash of participant's IP address.,,,,,,,,,,
#     Col. 3: Controller name.,,,,,,,,,,
#     Col. 4: Item number.,,,,,,,,,,
#     Col. 5: Element number.,,,,,,,,,,
#     Col. 6: Type.,,,,,,,,,,
#     Col. 7: Group.,,,,,,,,,,
#     Col. 8: Sentence (or sentence MD5).,,,,,,,,,,
1606234515,06a738838c13bc4a47be44f5c9af9e71,SingleSlider,7,1,control.presup,1,<b>Eva doesn't like to lammor.</b> ,0,100,84.33
1606234515,06a738838c13bc4a47be44f5c9af9e71,SingleSlider,8,0,control.ant,2,<p>On this planet%2C some aliens are fleppers and some aliens are not fleppers.</p> <p><b>You overhear a few aliens talking about lammoring%2C but you don't understand it.</b></p> <p>You are about to interview Eva%2C an alien from this planet. The information you've collected about Eva so far suggests this: <b>Eva is a flepper%2C and she likes to lammor.</b></p> ,,,
# The lines below this comment are in groups of 2.,,,,,,,,,,
# The formats of the lines in each of these groups are as follows:,,,,,,,,,,
#,,,,,,,,,,
# Line 1:,,,,,,,,,,
#     Col. 1: Time results were received.,,,,,,,,,,
#     Col. 2: MD5 hash of participant's IP address.,,,,,,,,,,
#     Col. 3: Controller name.,,,,,,,,,,
#     Col. 4: Item number.,,,,,,,,,,
#     Col. 5: Element number.,,,,,,,,,,
#     Col. 6: Type.,,,,,,,,,,
#     Col. 7: Group.,,,,,,,,,,
#     Col. 8: Sentence (or sentence MD5).,,,,,,,,,,
# Line 2:,,,,,,,,,,
#     Col. 1: Time results were received.,,,,,,,,,,
#     Col. 2: MD5 hash of participant's IP address.,,,,,,,,,,
#     Col. 3: Controller name.,,,,,,,,,,
#     Col. 4: Item number.,,,,,,,,,,
#     Col. 5: Element number.,,,,,,,,,,
#     Col. 6: Type.,,,,,,,,,,
#     Col. 7: Group.,,,,,,,,,,
#     Col. 8: html.,,,,,,,,,,
#     Col. 9: startValue.,,,,,,,,,,
#     Col. 10: endValue.,,,,,,,,,,
#     Col. 11: value.,,,,,,,,,,
1606234515,06a738838c13bc4a47be44f5c9af9e71,SingleSlider,8,0,control.ant,2, <br> <p>How surprised would you be to learn during the interview that ...?</p> ,,,
1606234515,06a738838c13bc4a47be44f5c9af9e71,SingleSlider,8,0,control.ant,2,<b>Eva is a flepper.</b> ,0,100,31.33
# The lines below this comment are in groups of 2.,,,,,,,,,,
# The formats of the lines in each of these groups are as follows:,,,,,,,,,,
#,,,,,,,,,,
# Line 1:,,,,,,,,,,
#     Col. 1: Time results were received.,,,,,,,,,,
#     Col. 2: MD5 hash of participant's IP address.,,,,,,,,,,
#     Col. 3: Controller name.,,,,,,,,,,
#     Col. 4: Item number.,,,,,,,,,,
#     Col. 5: Element number.,,,,,,,,,,
#     Col. 6: Type.,,,,,,,,,,
#     Col. 7: Group.,,,,,,,,,,
#     Col. 8: Field name.,,,,,,,,,,
#     Col. 9: Field value.,,,,,,,,,,
# Line 2:,,,,,,,,,,
#     Col. 1: Time results were received.,,,,,,,,,,
#     Col. 2: MD5 hash of participant's IP address.,,,,,,,,,,
#     Col. 3: Controller name.,,,,,,,,,,
#     Col. 4: Item number.,,,,,,,,,,
#     Col. 5: Element number.,,,,,,,,,,
#     Col. 6: Type.,,,,,,,,,,
#     Col. 7: Group.,,,,,,,,,,
#     Col. 8: Sentence (or sentence MD5).,,,,,,,,,,
1606234515,06a738838c13bc4a47be44f5c9af9e71,AY_Form_inst,9,0,null.presup,3,_REACTION_TIME_,1763,,
1606234515,06a738838c13bc4a47be44f5c9af9e71,SingleSlider,9,1,null.presup,3,<p>On this planet%2C some aliens are gogopos and some aliens are not gogopos.</p> <p><b>You notice the word 'dord' on a guidebook%2C but no one explains it to you.</b></p> <p>You are about to interview Diane%2C an alien from this planet. The information you've collected about Diane so far suggests this: <b>If Diane is a gogopo%2C she will yapple her dord.</b></p> ,,,
# The lines below this comment are in groups of 2.,,,,,,,,,,
# The formats of the lines in each of these groups are as follows:,,,,,,,,,,
#,,,,,,,,,,
# Line 1:,,,,,,,,,,
#     Col. 1: Time results were received.,,,,,,,,,,
#     Col. 2: MD5 hash of participant's IP address.,,,,,,,,,,
#     Col. 3: Controller name.,,,,,,,,,,
#     Col. 4: Item number.,,,,,,,,,,
#     Col. 5: Element number.,,,,,,,,,,
#     Col. 6: Type.,,,,,,,,,,
#     Col. 7: Group.,,,,,,,,,,
#     Col. 8: Sentence (or sentence MD5).,,,,,,,,,,
# Line 2:,,,,,,,,,,
#     Col. 1: Time results were received.,,,,,,,,,,
#     Col. 2: MD5 hash of participant's IP address.,,,,,,,,,,
#     Col. 3: Controller name.,,,,,,,,,,
#     Col. 4: Item number.,,,,,,,,,,
#     Col. 5: Element number.,,,,,,,,,,
#     Col. 6: Type.,,,,,,,,,,
#     Col. 7: Group.,,,,,,,,,,
#     Col. 8: html.,,,,,,,,,,
#     Col. 9: startValue.,,,,,,,,,,
#     Col. 10: endValue.,,,,,,,,,,
#     Col. 11: value.,,,,,,,,,,
1606234515,06a738838c13bc4a47be44f5c9af9e71,SingleSlider,9,1,null.presup,3, <br> <p>How surprised would you be to learn during the interview that ...?</p> ,,,
1606234515,06a738838c13bc4a47be44f5c9af9e71,SingleSlider,9,1,null.presup,3,<b>Diane doesn't have a dord.</b> ,0,100,59.67
# The lines below this comment are in groups of 2.,,,,,,,,,,
# The formats of the lines in each of these groups are as follows:,,,,,,,,,,
#,,,,,,,,,,
# Line 1:,,,,,,,,,,
#     Col. 1: Time results were received.,,,,,,,,,,
#     Col. 2: MD5 hash of participant's IP address.,,,,,,,,,,
#     Col. 3: Controller name.,,,,,,,,,,
#     Col. 4: Item number.,,,,,,,,,,
#     Col. 5: Element number.,,,,,,,,,,
#     Col. 6: Type.,,,,,,,,,,
#     Col. 7: Group.,,,,,,,,,,
#     Col. 8: html.,,,,,,,,,,
#     Col. 9: startValue.,,,,,,,,,,
#     Col. 10: endValue.,,,,,,,,,,
#     Col. 11: value.,,,,,,,,,,
# Line 2:,,,,,,,,,,
#     Col. 1: Time results were received.,,,,,,,,,,
#     Col. 2: MD5 hash of participant's IP address.,,,,,,,,,,
#     Col. 3: Controller name.,,,,,,,,,,
#     Col. 4: Item number.,,,,,,,,,,
#     Col. 5: Element number.,,,,,,,,,,
#     Col. 6: Type.,,,,,,,,,,
#     Col. 7: Group.,,,,,,,,,,
#     Col. 8: Field name.,,,,,,,,,,
#     Col. 9: Field value.,,,,,,,,,,
1606234515,06a738838c13bc4a47be44f5c9af9e71,SingleSlider,10,0,null.ant,4,<b>Diane is a gogopo.</b> ,0,100,69.67
1606234515,06a738838c13bc4a47be44f5c9af9e71,Form,5,0,exit,NULL,comment,no,,
# Columns below this comment are as follows:,,,,,,,,,,
# 1. Time results were received.,,,,,,,,,,
# 2. MD5 hash of participant's IP address.,,,,,,,,,,
# 3. Controller name.,,,,,,,,,,
# 4. Item number.,,,,,,,,,,
# 5. Element number.,,,,,,,,,,
# 6. Type.,,,,,,,,,,
# 7. Group.,,,,,,,,,,
# 8. Field name.,,,,,,,,,,
# 9. Field value.,,,,,,,,,,
1606234515,06a738838c13bc4a47be44f5c9af9e71,Form,5,0,exit,NULL,_REACTION_TIME_,1986,,
#,,,,,,,,,,
# Results on Tuesday November 24 2020 16:17:24 UTC.,,,,,,,,,,
# USER AGENT: Mozilla/5.0 (Windows NT 6.3; Win64; x64; rv:83.0) Gecko/20100101 Firefox/83.0,,,,,,,,,,
# Design number was non-random = 5,,,,,,,,,,
#,,,,,,,,,,
# Columns below this comment are as follows:,,,,,,,,,,
# 1. Time results were received.,,,,,,,,,,
# 2. MD5 hash of participant's IP address.,,,,,,,,,,
# 3. Controller name.,,,,,,,,,,
# 4. Item number.,,,,,,,,,,
# 5. Element number.,,,,,,,,,,
# 6. Type.,,,,,,,,,,
# 7. Group.,,,,,,,,,,
# 8. Field name.,,,,,,,,,,
# 9. Field value.,,,,,,,,,,
1606234645,9fe522f9a127e6de488a450c8bc80928,Form,1,0,consent,NULL,consent,yes,,
1606234645,9fe522f9a127e6de488a450c8bc80928,Form,1,0,consent,NULL,_REACTION_TIME_,4087,,
1606234645,9fe522f9a127e6de488a450c8bc80928,Form,2,0,0_info,NULL,age,64,,
1606234645,9fe522f9a127e6de488a450c8bc80928,Form,2,0,0_info,NULL,natlang,English,,
1606234645,9fe522f9a127e6de488a450c8bc80928,Form,2,0,0_info,NULL,state,Michigan,,
1606234645,9fe522f9a127e6de488a450c8bc80928,Form,2,0,0_info,NULL,parentlang,English,,
1606234645,9fe522f9a127e6de488a450c8bc80928,Form,2,0,0_info,NULL,domlang,English,,
1606234645,9fe522f9a127e6de488a450c8bc80928,Form,2,0,0_info,NULL,otherlang,No,,
1606234645,9fe522f9a127e6de488a450c8bc80928,Form,2,0,0_info,NULL,ID,ABQKQQ8BD24BF,,
1606234645,9fe522f9a127e6de488a450c8bc80928,Form,2,0,0_info,NULL,_REACTION_TIME_,41458,,
1606234645,9fe522f9a127e6de488a450c8bc80928,Form,3,0,intro1,NULL,_REACTION_TIME_,14314,,
1606234645,9fe522f9a127e6de488a450c8bc80928,Form,4,0,intro2,NULL,_REACTION_TIME_,49006,,
1606234645,9fe522f9a127e6de488a450c8bc80928,AY_Form_inst,7,0,control.presup,1,_REACTION_TIME_,6794,,
# Columns below this comment are as follows:,,,,,,,,,,
# 1. Time results were received.,,,,,,,,,,
# 2. MD5 hash of participant's IP address.,,,,,,,,,,
# 3. Controller name.,,,,,,,,,,
# 4. Item number.,,,,,,,,,,
# 5. Element number.,,,,,,,,,,
# 6. Type.,,,,,,,,,,
# 7. Group.,,,,,,,,,,
# 8. Sentence (or sentence MD5).,,,,,,,,,,
1606234645,9fe522f9a127e6de488a450c8bc80928,SingleSlider,7,1,control.presup,1,<p>On this planet%2C some aliens are fleppers and some aliens are not fleppers.</p> <p><b>You overhear a few aliens talking about lammoring%2C but you don't understand it.</b></p> <p>You are about to interview Eva%2C an alien from this planet. The information you've collected about Eva so far suggests this: <b>Eva is a flepper%2C and she likes to lammor.</b></p> ,,,
1606234645,9fe522f9a127e6de488a450c8bc80928,SingleSlider,7,1,control.presup,1, <br> <p>How surprised would you be to learn during the interview that ...?</p> ,,,
# The lines below this comment are in groups of 2.,,,,,,,,,,
# The formats of the lines in each of these groups are as follows:,,,,,,,,,,
#,,,,,,,,,,
# Line 1:,,,,,,,,,,
#     Col. 1: Time results were received.,,,,,,,,,,
#     Col. 2: MD5 hash of participant's IP address.,,,,,,,,,,
#     Col. 3: Controller name.,,,,,,,,,,
#     Col. 4: Item number.,,,,,,,,,,
#     Col. 5: Element number.,,,,,,,,,,
#     Col. 6: Type.,,,,,,,,,,
#     Col. 7: Group.,,,,,,,,,,
#     Col. 8: html.,,,,,,,,,,
#     Col. 9: startValue.,,,,,,,,,,
#     Col. 10: endValue.,,,,,,,,,,
#     Col. 11: value.,,,,,,,,,,
# Line 2:,,,,,,,,,,
#     Col. 1: Time results were received.,,,,,,,,,,
#     Col. 2: MD5 hash of participant's IP address.,,,,,,,,,,
#     Col. 3: Controller name.,,,,,,,,,,
#     Col. 4: Item number.,,,,,,,,,,
#     Col. 5: Element number.,,,,,,,,,,
#     Col. 6: Type.,,,,,,,,,,
#     Col. 7: Group.,,,,,,,,,,
#     Col. 8: Sentence (or sentence MD5).,,,,,,,,,,
1606234645,9fe522f9a127e6de488a450c8bc80928,SingleSlider,7,1,control.presup,1,<b>Eva doesn't like to lammor.</b> ,0,100,100
1606234645,9fe522f9a127e6de488a450c8bc80928,SingleSlider,8,0,control.ant,2,<p>On this planet%2C some aliens are fleppers and some aliens are not fleppers.</p> <p><b>You overhear a few aliens talking about lammoring%2C but you don't understand it.</b></p> <p>You are about to interview Eva%2C an alien from this planet. The information you've collected about Eva so far suggests this: <b>Eva is a flepper%2C and she likes to lammor.</b></p> ,,,
# The lines below this comment are in groups of 2.,,,,,,,,,,
# The formats of the lines in each of these groups are as follows:,,,,,,,,,,
#,,,,,,,,,,
# Line 1:,,,,,,,,,,
#     Col. 1: Time results were received.,,,,,,,,,,
#     Col. 2: MD5 hash of participant's IP address.,,,,,,,,,,
#     Col. 3: Controller name.,,,,,,,,,,
#     Col. 4: Item number.,,,,,,,,,,
#     Col. 5: Element number.,,,,,,,,,,
#     Col. 6: Type.,,,,,,,,,,
#     Col. 7: Group.,,,,,,,,,,
#     Col. 8: Sentence (or sentence MD5).,,,,,,,,,,
# Line 2:,,,,,,,,,,
#     Col. 1: Time results were received.,,,,,,,,,,
#     Col. 2: MD5 hash of participant's IP address.,,,,,,,,,,
#     Col. 3: Controller name.,,,,,,,,,,
#     Col. 4: Item number.,,,,,,,,,,
#     Col. 5: Element number.,,,,,,,,,,
#     Col. 6: Type.,,,,,,,,,,
#     Col. 7: Group.,,,,,,,,,,
#     Col. 8: html.,,,,,,,,,,
#     Col. 9: startValue.,,,,,,,,,,
#     Col. 10: endValue.,,,,,,,,,,
#     Col. 11: value.,,,,,,,,,,
1606234645,9fe522f9a127e6de488a450c8bc80928,SingleSlider,8,0,control.ant,2, <br> <p>How surprised would you be to learn during the interview that ...?</p> ,,,
1606234645,9fe522f9a127e6de488a450c8bc80928,SingleSlider,8,0,control.ant,2,<b>Eva is a flepper.</b> ,0,100,0
# The lines below this comment are in groups of 2.,,,,,,,,,,
# The formats of the lines in each of these groups are as follows:,,,,,,,,,,
#,,,,,,,,,,
# Line 1:,,,,,,,,,,
#     Col. 1: Time results were received.,,,,,,,,,,
#     Col. 2: MD5 hash of participant's IP address.,,,,,,,,,,
#     Col. 3: Controller name.,,,,,,,,,,
#     Col. 4: Item number.,,,,,,,,,,
#     Col. 5: Element number.,,,,,,,,,,
#     Col. 6: Type.,,,,,,,,,,
#     Col. 7: Group.,,,,,,,,,,
#     Col. 8: Field name.,,,,,,,,,,
#     Col. 9: Field value.,,,,,,,,,,
# Line 2:,,,,,,,,,,
#     Col. 1: Time results were received.,,,,,,,,,,
#     Col. 2: MD5 hash of participant's IP address.,,,,,,,,,,
#     Col. 3: Controller name.,,,,,,,,,,
#     Col. 4: Item number.,,,,,,,,,,
#     Col. 5: Element number.,,,,,,,,,,
#     Col. 6: Type.,,,,,,,,,,
#     Col. 7: Group.,,,,,,,,,,
#     Col. 8: Sentence (or sentence MD5).,,,,,,,,,,
1606234645,9fe522f9a127e6de488a450c8bc80928,AY_Form_inst,9,0,null.presup,3,_REACTION_TIME_,2495,,
1606234645,9fe522f9a127e6de488a450c8bc80928,SingleSlider,9,1,null.presup,3,<p>On this planet%2C some aliens are gogopos and some aliens are not gogopos.</p> <p><b>You notice the word 'dord' on a guidebook%2C but no one explains it to you.</b></p> <p>You are about to interview Diane%2C an alien from this planet. The information you've collected about Diane so far suggests this: <b>If Diane is a gogopo%2C she will yapple her dord.</b></p> ,,,
# The lines below this comment are in groups of 2.,,,,,,,,,,
# The formats of the lines in each of these groups are as follows:,,,,,,,,,,
#,,,,,,,,,,
# Line 1:,,,,,,,,,,
#     Col. 1: Time results were received.,,,,,,,,,,
#     Col. 2: MD5 hash of participant's IP address.,,,,,,,,,,
#     Col. 3: Controller name.,,,,,,,,,,
#     Col. 4: Item number.,,,,,,,,,,
#     Col. 5: Element number.,,,,,,,,,,
#     Col. 6: Type.,,,,,,,,,,
#     Col. 7: Group.,,,,,,,,,,
#     Col. 8: Sentence (or sentence MD5).,,,,,,,,,,
# Line 2:,,,,,,,,,,
#     Col. 1: Time results were received.,,,,,,,,,,
#     Col. 2: MD5 hash of participant's IP address.,,,,,,,,,,
#     Col. 3: Controller name.,,,,,,,,,,
#     Col. 4: Item number.,,,,,,,,,,
#     Col. 5: Element number.,,,,,,,,,,
#     Col. 6: Type.,,,,,,,,,,
#     Col. 7: Group.,,,,,,,,,,
#     Col. 8: html.,,,,,,,,,,
#     Col. 9: startValue.,,,,,,,,,,
#     Col. 10: endValue.,,,,,,,,,,
#     Col. 11: value.,,,,,,,,,,
1606234645,9fe522f9a127e6de488a450c8bc80928,SingleSlider,9,1,null.presup,3, <br> <p>How surprised would you be to learn during the interview that ...?</p> ,,,
1606234645,9fe522f9a127e6de488a450c8bc80928,SingleSlider,9,1,null.presup,3,<b>Diane doesn't have a dord.</b> ,0,100,20.17
# Columns below this comment are as follows:,,,,,,,,,,
# 1. Time results were received.,,,,,,,,,,
# 2. MD5 hash of participant's IP address.,,,,,,,,,,
# 3. Controller name.,,,,,,,,,,
# 4. Item number.,,,,,,,,,,
# 5. Element number.,,,,,,,,,,
# 6. Type.,,,,,,,,,,
# 7. Group.,,,,,,,,,,
# 8. Sentence (or sentence MD5).,,,,,,,,,,
1606234645,9fe522f9a127e6de488a450c8bc80928,SingleSlider,10,0,null.ant,4,<p>On this planet%2C some aliens are gogopos and some aliens are not gogopos.</p> <p><b>You notice the word 'dord' on a guidebook%2C but no one explains it to you.</b></p> <p>You are about to interview Diane%2C an alien from this planet. The information you've collected about Diane so far suggests this: <b>If Diane is a gogopo%2C she will yapple her dord.</b></p> ,,,
1606234645,9fe522f9a127e6de488a450c8bc80928,SingleSlider,10,0,null.ant,4, <br> <p>How surprised would you be to learn during the interview that ...?</p> ,,,
# The lines below this comment are in groups of 2.,,,,,,,,,,
# The formats of the lines in each of these groups are as follows:,,,,,,,,,,
#,,,,,,,,,,
# Line 1:,,,,,,,,,,
#     Col. 1: Time results were received.,,,,,,,,,,
#     Col. 2: MD5 hash of participant's IP address.,,,,,,,,,,
#     Col. 3: Controller name.,,,,,,,,,,
#     Col. 4: Item number.,,,,,,,,,,
#     Col. 5: Element number.,,,,,,,,,,
#     Col. 6: Type.,,,,,,,,,,
#     Col. 7: Group.,,,,,,,,,,
#     Col. 8: html.,,,,,,,,,,
#     Col. 9: startValue.,,,,,,,,,,
#     Col. 10: endValue.,,,,,,,,,,
#     Col. 11: value.,,,,,,,,,,
# Line 2:,,,,,,,,,,
#     Col. 1: Time results were received.,,,,,,,,,,
#     Col. 2: MD5 hash of participant's IP address.,,,,,,,,,,
#     Col. 3: Controller name.,,,,,,,,,,
#     Col. 4: Item number.,,,,,,,,,,
#     Col. 5: Element number.,,,,,,,,,,
#     Col. 6: Type.,,,,,,,,,,
#     Col. 7: Group.,,,,,,,,,,
#     Col. 8: Field name.,,,,,,,,,,
#     Col. 9: Field value.,,,,,,,,,,
1606234645,9fe522f9a127e6de488a450c8bc80928,SingleSlider,10,0,null.ant,4,<b>Diane is a gogopo.</b> ,0,100,18.51
1606234645,9fe522f9a127e6de488a450c8bc80928,Form,5,0,exit,NULL,comment,,,
# Columns below this comment are as follows:,,,,,,,,,,
# 1. Time results were received.,,,,,,,,,,
# 2. MD5 hash of participant's IP address.,,,,,,,,,,
# 3. Controller name.,,,,,,,,,,
# 4. Item number.,,,,,,,,,,
# 5. Element number.,,,,,,,,,,
# 6. Type.,,,,,,,,,,
# 7. Group.,,,,,,,,,,
# 8. Field name.,,,,,,,,,,
# 9. Field value.,,,,,,,,,,
1606234645,9fe522f9a127e6de488a450c8bc80928,Form,5,0,exit,NULL,_REACTION_TIME_,3359,,
#,,,,,,,,,,
# Results on Tuesday November 24 2020 16:17:30 UTC.,,,,,,,,,,
# USER AGENT: Mozilla/5.0 (Windows NT 10.0; Win64; x64) AppleWebKit/537.36 (KHTML, like Gecko) Chrome/87.0.4280.66 Safari/537.36,,,,,,,,,
# Design number was non-random = 5,,,,,,,,,,
#,,,,,,,,,,
# Columns below this comment are as follows:,,,,,,,,,,
# 1. Time results were received.,,,,,,,,,,
# 2. MD5 hash of participant's IP address.,,,,,,,,,,
# 3. Controller name.,,,,,,,,,,
# 4. Item number.,,,,,,,,,,
# 5. Element number.,,,,,,,,,,
# 6. Type.,,,,,,,,,,
# 7. Group.,,,,,,,,,,
# 8. Field name.,,,,,,,,,,
# 9. Field value.,,,,,,,,,,
1606234651,82d526a524ce0d301e75936667e813e2,Form,1,0,consent,NULL,consent,yes,,
1606234651,82d526a524ce0d301e75936667e813e2,Form,1,0,consent,NULL,_REACTION_TIME_,17877,,
1606234651,82d526a524ce0d301e75936667e813e2,Form,2,0,0_info,NULL,age,32,,
1606234651,82d526a524ce0d301e75936667e813e2,Form,2,0,0_info,NULL,natlang,ENGLISH,,
1606234651,82d526a524ce0d301e75936667e813e2,Form,2,0,0_info,NULL,state,TEXAS,,
1606234651,82d526a524ce0d301e75936667e813e2,Form,2,0,0_info,NULL,parentlang,ENGLISH,,
1606234651,82d526a524ce0d301e75936667e813e2,Form,2,0,0_info,NULL,domlang,ENGLISH,,
1606234651,82d526a524ce0d301e75936667e813e2,Form,2,0,0_info,NULL,otherlang,NO,,
1606234651,82d526a524ce0d301e75936667e813e2,Form,2,0,0_info,NULL,ID,A2XHNHSBAHOGHZ,,
1606234651,82d526a524ce0d301e75936667e813e2,Form,2,0,0_info,NULL,_REACTION_TIME_,44482,,
1606234651,82d526a524ce0d301e75936667e813e2,Form,3,0,intro1,NULL,_REACTION_TIME_,10532,,
1606234651,82d526a524ce0d301e75936667e813e2,Form,4,0,intro2,NULL,_REACTION_TIME_,1970,,
1606234651,82d526a524ce0d301e75936667e813e2,AY_Form_inst,7,0,control.presup,1,_REACTION_TIME_,4947,,
# Columns below this comment are as follows:,,,,,,,,,,
# 1. Time results were received.,,,,,,,,,,
# 2. MD5 hash of participant's IP address.,,,,,,,,,,
# 3. Controller name.,,,,,,,,,,
# 4. Item number.,,,,,,,,,,
# 5. Element number.,,,,,,,,,,
# 6. Type.,,,,,,,,,,
# 7. Group.,,,,,,,,,,
# 8. Sentence (or sentence MD5).,,,,,,,,,,
1606234651,82d526a524ce0d301e75936667e813e2,SingleSlider,7,1,control.presup,1,<p>On this planet%2C some aliens are fleppers and some aliens are not fleppers.</p> <p><b>You overhear a few aliens talking about lammoring%2C but you don't understand it.</b></p> <p>You are about to interview Eva%2C an alien from this planet. The information you've collected about Eva so far suggests this: <b>Eva is a flepper%2C and she likes to lammor.</b></p> ,,,
1606234651,82d526a524ce0d301e75936667e813e2,SingleSlider,7,1,control.presup,1, <br> <p>How surprised would you be to learn during the interview that ...?</p> ,,,
# The lines below this comment are in groups of 2.,,,,,,,,,,
# The formats of the lines in each of these groups are as follows:,,,,,,,,,,
#,,,,,,,,,,
# Line 1:,,,,,,,,,,
#     Col. 1: Time results were received.,,,,,,,,,,
#     Col. 2: MD5 hash of participant's IP address.,,,,,,,,,,
#     Col. 3: Controller name.,,,,,,,,,,
#     Col. 4: Item number.,,,,,,,,,,
#     Col. 5: Element number.,,,,,,,,,,
#     Col. 6: Type.,,,,,,,,,,
#     Col. 7: Group.,,,,,,,,,,
#     Col. 8: html.,,,,,,,,,,
#     Col. 9: startValue.,,,,,,,,,,
#     Col. 10: endValue.,,,,,,,,,,
#     Col. 11: value.,,,,,,,,,,
# Line 2:,,,,,,,,,,
#     Col. 1: Time results were received.,,,,,,,,,,
#     Col. 2: MD5 hash of participant's IP address.,,,,,,,,,,
#     Col. 3: Controller name.,,,,,,,,,,
#     Col. 4: Item number.,,,,,,,,,,
#     Col. 5: Element number.,,,,,,,,,,
#     Col. 6: Type.,,,,,,,,,,
#     Col. 7: Group.,,,,,,,,,,
#     Col. 8: Sentence (or sentence MD5).,,,,,,,,,,
1606234651,82d526a524ce0d301e75936667e813e2,SingleSlider,7,1,control.presup,1,<b>Eva doesn't like to lammor.</b> ,0,100,48.17
1606234651,82d526a524ce0d301e75936667e813e2,SingleSlider,8,0,control.ant,2,<p>On this planet%2C some aliens are fleppers and some aliens are not fleppers.</p> <p><b>You overhear a few aliens talking about lammoring%2C but you don't understand it.</b></p> <p>You are about to interview Eva%2C an alien from this planet. The information you've collected about Eva so far suggests this: <b>Eva is a flepper%2C and she likes to lammor.</b></p> ,,,
# The lines below this comment are in groups of 2.,,,,,,,,,,
# The formats of the lines in each of these groups are as follows:,,,,,,,,,,
#,,,,,,,,,,
# Line 1:,,,,,,,,,,
#     Col. 1: Time results were received.,,,,,,,,,,
#     Col. 2: MD5 hash of participant's IP address.,,,,,,,,,,
#     Col. 3: Controller name.,,,,,,,,,,
#     Col. 4: Item number.,,,,,,,,,,
#     Col. 5: Element number.,,,,,,,,,,
#     Col. 6: Type.,,,,,,,,,,
#     Col. 7: Group.,,,,,,,,,,
#     Col. 8: Sentence (or sentence MD5).,,,,,,,,,,
# Line 2:,,,,,,,,,,
#     Col. 1: Time results were received.,,,,,,,,,,
#     Col. 2: MD5 hash of participant's IP address.,,,,,,,,,,
#     Col. 3: Controller name.,,,,,,,,,,
#     Col. 4: Item number.,,,,,,,,,,
#     Col. 5: Element number.,,,,,,,,,,
#     Col. 6: Type.,,,,,,,,,,
#     Col. 7: Group.,,,,,,,,,,
#     Col. 8: html.,,,,,,,,,,
#     Col. 9: startValue.,,,,,,,,,,
#     Col. 10: endValue.,,,,,,,,,,
#     Col. 11: value.,,,,,,,,,,
1606234651,82d526a524ce0d301e75936667e813e2,SingleSlider,8,0,control.ant,2, <br> <p>How surprised would you be to learn during the interview that ...?</p> ,,,
1606234651,82d526a524ce0d301e75936667e813e2,SingleSlider,8,0,control.ant,2,<b>Eva is a flepper.</b> ,0,100,73.83
# The lines below this comment are in groups of 2.,,,,,,,,,,
# The formats of the lines in each of these groups are as follows:,,,,,,,,,,
#,,,,,,,,,,
# Line 1:,,,,,,,,,,
#     Col. 1: Time results were received.,,,,,,,,,,
#     Col. 2: MD5 hash of participant's IP address.,,,,,,,,,,
#     Col. 3: Controller name.,,,,,,,,,,
#     Col. 4: Item number.,,,,,,,,,,
#     Col. 5: Element number.,,,,,,,,,,
#     Col. 6: Type.,,,,,,,,,,
#     Col. 7: Group.,,,,,,,,,,
#     Col. 8: Field name.,,,,,,,,,,
#     Col. 9: Field value.,,,,,,,,,,
# Line 2:,,,,,,,,,,
#     Col. 1: Time results were received.,,,,,,,,,,
#     Col. 2: MD5 hash of participant's IP address.,,,,,,,,,,
#     Col. 3: Controller name.,,,,,,,,,,
#     Col. 4: Item number.,,,,,,,,,,
#     Col. 5: Element number.,,,,,,,,,,
#     Col. 6: Type.,,,,,,,,,,
#     Col. 7: Group.,,,,,,,,,,
#     Col. 8: Sentence (or sentence MD5).,,,,,,,,,,
1606234651,82d526a524ce0d301e75936667e813e2,AY_Form_inst,9,0,null.presup,3,_REACTION_TIME_,2918,,
1606234651,82d526a524ce0d301e75936667e813e2,SingleSlider,9,1,null.presup,3,<p>On this planet%2C some aliens are gogopos and some aliens are not gogopos.</p> <p><b>You notice the word 'dord' on a guidebook%2C but no one explains it to you.</b></p> <p>You are about to interview Diane%2C an alien from this planet. The information you've collected about Diane so far suggests this: <b>If Diane is a gogopo%2C she will yapple her dord.</b></p> ,,,
# The lines below this comment are in groups of 2.,,,,,,,,,,
# The formats of the lines in each of these groups are as follows:,,,,,,,,,,
#,,,,,,,,,,
# Line 1:,,,,,,,,,,
#     Col. 1: Time results were received.,,,,,,,,,,
#     Col. 2: MD5 hash of participant's IP address.,,,,,,,,,,
#     Col. 3: Controller name.,,,,,,,,,,
#     Col. 4: Item number.,,,,,,,,,,
#     Col. 5: Element number.,,,,,,,,,,
#     Col. 6: Type.,,,,,,,,,,
#     Col. 7: Group.,,,,,,,,,,
#     Col. 8: Sentence (or sentence MD5).,,,,,,,,,,
# Line 2:,,,,,,,,,,
#     Col. 1: Time results were received.,,,,,,,,,,
#     Col. 2: MD5 hash of participant's IP address.,,,,,,,,,,
#     Col. 3: Controller name.,,,,,,,,,,
#     Col. 4: Item number.,,,,,,,,,,
#     Col. 5: Element number.,,,,,,,,,,
#     Col. 6: Type.,,,,,,,,,,
#     Col. 7: Group.,,,,,,,,,,
#     Col. 8: html.,,,,,,,,,,
#     Col. 9: startValue.,,,,,,,,,,
#     Col. 10: endValue.,,,,,,,,,,
#     Col. 11: value.,,,,,,,,,,
1606234651,82d526a524ce0d301e75936667e813e2,SingleSlider,9,1,null.presup,3, <br> <p>How surprised would you be to learn during the interview that ...?</p> ,,,
1606234651,82d526a524ce0d301e75936667e813e2,SingleSlider,9,1,null.presup,3,<b>Diane doesn't have a dord.</b> ,0,100,38.83
# Columns below this comment are as follows:,,,,,,,,,,
# 1. Time results were received.,,,,,,,,,,
# 2. MD5 hash of participant's IP address.,,,,,,,,,,
# 3. Controller name.,,,,,,,,,,
# 4. Item number.,,,,,,,,,,
# 5. Element number.,,,,,,,,,,
# 6. Type.,,,,,,,,,,
# 7. Group.,,,,,,,,,,
# 8. Sentence (or sentence MD5).,,,,,,,,,,
1606234651,82d526a524ce0d301e75936667e813e2,SingleSlider,10,0,null.ant,4,<p>On this planet%2C some aliens are gogopos and some aliens are not gogopos.</p> <p><b>You notice the word 'dord' on a guidebook%2C but no one explains it to you.</b></p> <p>You are about to interview Diane%2C an alien from this planet. The information you've collected about Diane so far suggests this: <b>If Diane is a gogopo%2C she will yapple her dord.</b></p> ,,,
1606234651,82d526a524ce0d301e75936667e813e2,SingleSlider,10,0,null.ant,4, <br> <p>How surprised would you be to learn during the interview that ...?</p> ,,,
# The lines below this comment are in groups of 2.,,,,,,,,,,
# The formats of the lines in each of these groups are as follows:,,,,,,,,,,
#,,,,,,,,,,
# Line 1:,,,,,,,,,,
#     Col. 1: Time results were received.,,,,,,,,,,
#     Col. 2: MD5 hash of participant's IP address.,,,,,,,,,,
#     Col. 3: Controller name.,,,,,,,,,,
#     Col. 4: Item number.,,,,,,,,,,
#     Col. 5: Element number.,,,,,,,,,,
#     Col. 6: Type.,,,,,,,,,,
#     Col. 7: Group.,,,,,,,,,,
#     Col. 8: html.,,,,,,,,,,
#     Col. 9: startValue.,,,,,,,,,,
#     Col. 10: endValue.,,,,,,,,,,
#     Col. 11: value.,,,,,,,,,,
# Line 2:,,,,,,,,,,
#     Col. 1: Time results were received.,,,,,,,,,,
#     Col. 2: MD5 hash of participant's IP address.,,,,,,,,,,
#     Col. 3: Controller name.,,,,,,,,,,
#     Col. 4: Item number.,,,,,,,,,,
#     Col. 5: Element number.,,,,,,,,,,
#     Col. 6: Type.,,,,,,,,,,
#     Col. 7: Group.,,,,,,,,,,
#     Col. 8: Field name.,,,,,,,,,,
#     Col. 9: Field value.,,,,,,,,,,
1606234651,82d526a524ce0d301e75936667e813e2,SingleSlider,10,0,null.ant,4,<b>Diane is a gogopo.</b> ,0,100,64.17
1606234651,82d526a524ce0d301e75936667e813e2,Form,5,0,exit,NULL,comment,,,
# Columns below this comment are as follows:,,,,,,,,,,
# 1. Time results were received.,,,,,,,,,,
# 2. MD5 hash of participant's IP address.,,,,,,,,,,
# 3. Controller name.,,,,,,,,,,
# 4. Item number.,,,,,,,,,,
# 5. Element number.,,,,,,,,,,
# 6. Type.,,,,,,,,,,
# 7. Group.,,,,,,,,,,
# 8. Field name.,,,,,,,,,,
# 9. Field value.,,,,,,,,,,
1606234651,82d526a524ce0d301e75936667e813e2,Form,5,0,exit,NULL,_REACTION_TIME_,2061,,
#,,,,,,,,,,
# Results on Tuesday November 24 2020 16:18:04 UTC.,,,,,,,,,,
# USER AGENT: Mozilla/5.0 (Windows NT 10.0; Win64; x64) AppleWebKit/537.36 (KHTML, like Gecko) Chrome/87.0.4280.66 Safari/537.36,,,,,,,,,
# Design number was non-random = 5,,,,,,,,,,
#,,,,,,,,,,
# Columns below this comment are as follows:,,,,,,,,,,
# 1. Time results were received.,,,,,,,,,,
# 2. MD5 hash of participant's IP address.,,,,,,,,,,
# 3. Controller name.,,,,,,,,,,
# 4. Item number.,,,,,,,,,,
# 5. Element number.,,,,,,,,,,
# 6. Type.,,,,,,,,,,
# 7. Group.,,,,,,,,,,
# 8. Field name.,,,,,,,,,,
# 9. Field value.,,,,,,,,,,
1606234685,81db609e2e35d5cc11b8a5531b4a52b8,Form,1,0,consent,NULL,consent,yes,,
1606234685,81db609e2e35d5cc11b8a5531b4a52b8,Form,1,0,consent,NULL,_REACTION_TIME_,2487,,
1606234685,81db609e2e35d5cc11b8a5531b4a52b8,Form,2,0,0_info,NULL,age,27,,
1606234685,81db609e2e35d5cc11b8a5531b4a52b8,Form,2,0,0_info,NULL,natlang,English,,
1606234685,81db609e2e35d5cc11b8a5531b4a52b8,Form,2,0,0_info,NULL,state,MD,,
1606234685,81db609e2e35d5cc11b8a5531b4a52b8,Form,2,0,0_info,NULL,parentlang,English,,
1606234685,81db609e2e35d5cc11b8a5531b4a52b8,Form,2,0,0_info,NULL,domlang,English,,
1606234685,81db609e2e35d5cc11b8a5531b4a52b8,Form,2,0,0_info,NULL,otherlang,No,,
1606234685,81db609e2e35d5cc11b8a5531b4a52b8,Form,2,0,0_info,NULL,ID,A1G34TESSXG1R8,,
1606234685,81db609e2e35d5cc11b8a5531b4a52b8,Form,2,0,0_info,NULL,_REACTION_TIME_,20296,,
1606234685,81db609e2e35d5cc11b8a5531b4a52b8,Form,3,0,intro1,NULL,_REACTION_TIME_,15318,,
1606234685,81db609e2e35d5cc11b8a5531b4a52b8,Form,4,0,intro2,NULL,_REACTION_TIME_,11194,,
1606234685,81db609e2e35d5cc11b8a5531b4a52b8,AY_Form_inst,7,0,control.presup,1,_REACTION_TIME_,3551,,
# Columns below this comment are as follows:,,,,,,,,,,
# 1. Time results were received.,,,,,,,,,,
# 2. MD5 hash of participant's IP address.,,,,,,,,,,
# 3. Controller name.,,,,,,,,,,
# 4. Item number.,,,,,,,,,,
# 5. Element number.,,,,,,,,,,
# 6. Type.,,,,,,,,,,
# 7. Group.,,,,,,,,,,
# 8. Sentence (or sentence MD5).,,,,,,,,,,
1606234685,81db609e2e35d5cc11b8a5531b4a52b8,SingleSlider,7,1,control.presup,1,<p>On this planet%2C some aliens are fleppers and some aliens are not fleppers.</p> <p><b>You overhear a few aliens talking about lammoring%2C but you don't understand it.</b></p> <p>You are about to interview Eva%2C an alien from this planet. The information you've collected about Eva so far suggests this: <b>Eva is a flepper%2C and she likes to lammor.</b></p> ,,,
1606234685,81db609e2e35d5cc11b8a5531b4a52b8,SingleSlider,7,1,control.presup,1, <br> <p>How surprised would you be to learn during the interview that ...?</p> ,,,
# The lines below this comment are in groups of 2.,,,,,,,,,,
# The formats of the lines in each of these groups are as follows:,,,,,,,,,,
#,,,,,,,,,,
# Line 1:,,,,,,,,,,
#     Col. 1: Time results were received.,,,,,,,,,,
#     Col. 2: MD5 hash of participant's IP address.,,,,,,,,,,
#     Col. 3: Controller name.,,,,,,,,,,
#     Col. 4: Item number.,,,,,,,,,,
#     Col. 5: Element number.,,,,,,,,,,
#     Col. 6: Type.,,,,,,,,,,
#     Col. 7: Group.,,,,,,,,,,
#     Col. 8: html.,,,,,,,,,,
#     Col. 9: startValue.,,,,,,,,,,
#     Col. 10: endValue.,,,,,,,,,,
#     Col. 11: value.,,,,,,,,,,
# Line 2:,,,,,,,,,,
#     Col. 1: Time results were received.,,,,,,,,,,
#     Col. 2: MD5 hash of participant's IP address.,,,,,,,,,,
#     Col. 3: Controller name.,,,,,,,,,,
#     Col. 4: Item number.,,,,,,,,,,
#     Col. 5: Element number.,,,,,,,,,,
#     Col. 6: Type.,,,,,,,,,,
#     Col. 7: Group.,,,,,,,,,,
#     Col. 8: Sentence (or sentence MD5).,,,,,,,,,,
1606234685,81db609e2e35d5cc11b8a5531b4a52b8,SingleSlider,7,1,control.presup,1,<b>Eva doesn't like to lammor.</b> ,0,100,100
1606234685,81db609e2e35d5cc11b8a5531b4a52b8,SingleSlider,8,0,control.ant,2,<p>On this planet%2C some aliens are fleppers and some aliens are not fleppers.</p> <p><b>You overhear a few aliens talking about lammoring%2C but you don't understand it.</b></p> <p>You are about to interview Eva%2C an alien from this planet. The information you've collected about Eva so far suggests this: <b>Eva is a flepper%2C and she likes to lammor.</b></p> ,,,
# The lines below this comment are in groups of 2.,,,,,,,,,,
# The formats of the lines in each of these groups are as follows:,,,,,,,,,,
#,,,,,,,,,,
# Line 1:,,,,,,,,,,
#     Col. 1: Time results were received.,,,,,,,,,,
#     Col. 2: MD5 hash of participant's IP address.,,,,,,,,,,
#     Col. 3: Controller name.,,,,,,,,,,
#     Col. 4: Item number.,,,,,,,,,,
#     Col. 5: Element number.,,,,,,,,,,
#     Col. 6: Type.,,,,,,,,,,
#     Col. 7: Group.,,,,,,,,,,
#     Col. 8: Sentence (or sentence MD5).,,,,,,,,,,
# Line 2:,,,,,,,,,,
#     Col. 1: Time results were received.,,,,,,,,,,
#     Col. 2: MD5 hash of participant's IP address.,,,,,,,,,,
#     Col. 3: Controller name.,,,,,,,,,,
#     Col. 4: Item number.,,,,,,,,,,
#     Col. 5: Element number.,,,,,,,,,,
#     Col. 6: Type.,,,,,,,,,,
#     Col. 7: Group.,,,,,,,,,,
#     Col. 8: html.,,,,,,,,,,
#     Col. 9: startValue.,,,,,,,,,,
#     Col. 10: endValue.,,,,,,,,,,
#     Col. 11: value.,,,,,,,,,,
1606234685,81db609e2e35d5cc11b8a5531b4a52b8,SingleSlider,8,0,control.ant,2, <br> <p>How surprised would you be to learn during the interview that ...?</p> ,,,
1606234685,81db609e2e35d5cc11b8a5531b4a52b8,SingleSlider,8,0,control.ant,2,<b>Eva is a flepper.</b> ,0,100,0
# The lines below this comment are in groups of 2.,,,,,,,,,,
# The formats of the lines in each of these groups are as follows:,,,,,,,,,,
#,,,,,,,,,,
# Line 1:,,,,,,,,,,
#     Col. 1: Time results were received.,,,,,,,,,,
#     Col. 2: MD5 hash of participant's IP address.,,,,,,,,,,
#     Col. 3: Controller name.,,,,,,,,,,
#     Col. 4: Item number.,,,,,,,,,,
#     Col. 5: Element number.,,,,,,,,,,
#     Col. 6: Type.,,,,,,,,,,
#     Col. 7: Group.,,,,,,,,,,
#     Col. 8: Field name.,,,,,,,,,,
#     Col. 9: Field value.,,,,,,,,,,
# Line 2:,,,,,,,,,,
#     Col. 1: Time results were received.,,,,,,,,,,
#     Col. 2: MD5 hash of participant's IP address.,,,,,,,,,,
#     Col. 3: Controller name.,,,,,,,,,,
#     Col. 4: Item number.,,,,,,,,,,
#     Col. 5: Element number.,,,,,,,,,,
#     Col. 6: Type.,,,,,,,,,,
#     Col. 7: Group.,,,,,,,,,,
#     Col. 8: Sentence (or sentence MD5).,,,,,,,,,,
1606234685,81db609e2e35d5cc11b8a5531b4a52b8,AY_Form_inst,9,0,null.presup,3,_REACTION_TIME_,1807,,
1606234685,81db609e2e35d5cc11b8a5531b4a52b8,SingleSlider,9,1,null.presup,3,<p>On this planet%2C some aliens are gogopos and some aliens are not gogopos.</p> <p><b>You notice the word 'dord' on a guidebook%2C but no one explains it to you.</b></p> <p>You are about to interview Diane%2C an alien from this planet. The information you've collected about Diane so far suggests this: <b>If Diane is a gogopo%2C she will yapple her dord.</b></p> ,,,
# The lines below this comment are in groups of 2.,,,,,,,,,,
# The formats of the lines in each of these groups are as follows:,,,,,,,,,,
#,,,,,,,,,,
# Line 1:,,,,,,,,,,
#     Col. 1: Time results were received.,,,,,,,,,,
#     Col. 2: MD5 hash of participant's IP address.,,,,,,,,,,
#     Col. 3: Controller name.,,,,,,,,,,
#     Col. 4: Item number.,,,,,,,,,,
#     Col. 5: Element number.,,,,,,,,,,
#     Col. 6: Type.,,,,,,,,,,
#     Col. 7: Group.,,,,,,,,,,
#     Col. 8: Sentence (or sentence MD5).,,,,,,,,,,
# Line 2:,,,,,,,,,,
#     Col. 1: Time results were received.,,,,,,,,,,
#     Col. 2: MD5 hash of participant's IP address.,,,,,,,,,,
#     Col. 3: Controller name.,,,,,,,,,,
#     Col. 4: Item number.,,,,,,,,,,
#     Col. 5: Element number.,,,,,,,,,,
#     Col. 6: Type.,,,,,,,,,,
#     Col. 7: Group.,,,,,,,,,,
#     Col. 8: html.,,,,,,,,,,
#     Col. 9: startValue.,,,,,,,,,,
#     Col. 10: endValue.,,,,,,,,,,
#     Col. 11: value.,,,,,,,,,,
1606234685,81db609e2e35d5cc11b8a5531b4a52b8,SingleSlider,9,1,null.presup,3, <br> <p>How surprised would you be to learn during the interview that ...?</p> ,,,
1606234685,81db609e2e35d5cc11b8a5531b4a52b8,SingleSlider,9,1,null.presup,3,<b>Diane doesn't have a dord.</b> ,0,100,49.67
# Columns below this comment are as follows:,,,,,,,,,,
# 1. Time results were received.,,,,,,,,,,
# 2. MD5 hash of participant's IP address.,,,,,,,,,,
# 3. Controller name.,,,,,,,,,,
# 4. Item number.,,,,,,,,,,
# 5. Element number.,,,,,,,,,,
# 6. Type.,,,,,,,,,,
# 7. Group.,,,,,,,,,,
# 8. Sentence (or sentence MD5).,,,,,,,,,,
1606234685,81db609e2e35d5cc11b8a5531b4a52b8,SingleSlider,10,0,null.ant,4,<p>On this planet%2C some aliens are gogopos and some aliens are not gogopos.</p> <p><b>You notice the word 'dord' on a guidebook%2C but no one explains it to you.</b></p> <p>You are about to interview Diane%2C an alien from this planet. The information you've collected about Diane so far suggests this: <b>If Diane is a gogopo%2C she will yapple her dord.</b></p> ,,,
1606234685,81db609e2e35d5cc11b8a5531b4a52b8,SingleSlider,10,0,null.ant,4, <br> <p>How surprised would you be to learn during the interview that ...?</p> ,,,
# The lines below this comment are in groups of 2.,,,,,,,,,,
# The formats of the lines in each of these groups are as follows:,,,,,,,,,,
#,,,,,,,,,,
# Line 1:,,,,,,,,,,
#     Col. 1: Time results were received.,,,,,,,,,,
#     Col. 2: MD5 hash of participant's IP address.,,,,,,,,,,
#     Col. 3: Controller name.,,,,,,,,,,
#     Col. 4: Item number.,,,,,,,,,,
#     Col. 5: Element number.,,,,,,,,,,
#     Col. 6: Type.,,,,,,,,,,
#     Col. 7: Group.,,,,,,,,,,
#     Col. 8: html.,,,,,,,,,,
#     Col. 9: startValue.,,,,,,,,,,
#     Col. 10: endValue.,,,,,,,,,,
#     Col. 11: value.,,,,,,,,,,
# Line 2:,,,,,,,,,,
#     Col. 1: Time results were received.,,,,,,,,,,
#     Col. 2: MD5 hash of participant's IP address.,,,,,,,,,,
#     Col. 3: Controller name.,,,,,,,,,,
#     Col. 4: Item number.,,,,,,,,,,
#     Col. 5: Element number.,,,,,,,,,,
#     Col. 6: Type.,,,,,,,,,,
#     Col. 7: Group.,,,,,,,,,,
#     Col. 8: Field name.,,,,,,,,,,
#     Col. 9: Field value.,,,,,,,,,,
1606234685,81db609e2e35d5cc11b8a5531b4a52b8,SingleSlider,10,0,null.ant,4,<b>Diane is a gogopo.</b> ,0,100,0
1606234685,81db609e2e35d5cc11b8a5531b4a52b8,Form,5,0,exit,NULL,comment,,,
# Columns below this comment are as follows:,,,,,,,,,,
# 1. Time results were received.,,,,,,,,,,
# 2. MD5 hash of participant's IP address.,,,,,,,,,,
# 3. Controller name.,,,,,,,,,,
# 4. Item number.,,,,,,,,,,
# 5. Element number.,,,,,,,,,,
# 6. Type.,,,,,,,,,,
# 7. Group.,,,,,,,,,,
# 8. Field name.,,,,,,,,,,
# 9. Field value.,,,,,,,,,,
1606234685,81db609e2e35d5cc11b8a5531b4a52b8,Form,5,0,exit,NULL,_REACTION_TIME_,3980,,
#,,,,,,,,,,
# Results on Tuesday November 24 2020 16:18:48 UTC.,,,,,,,,,,
# USER AGENT: Mozilla/5.0 (Windows NT 10.0; Win64; x64) AppleWebKit/537.36 (KHTML, like Gecko) Chrome/88.0.4321.0 Safari/537.36 Edg/88.0.702.0,,,,,,,,,
# Design number was non-random = 4,,,,,,,,,,
#,,,,,,,,,,
# Columns below this comment are as follows:,,,,,,,,,,
# 1. Time results were received.,,,,,,,,,,
# 2. MD5 hash of participant's IP address.,,,,,,,,,,
# 3. Controller name.,,,,,,,,,,
# 4. Item number.,,,,,,,,,,
# 5. Element number.,,,,,,,,,,
# 6. Type.,,,,,,,,,,
# 7. Group.,,,,,,,,,,
# 8. Field name.,,,,,,,,,,
# 9. Field value.,,,,,,,,,,
1606234729,0ac47e447a262ce597cff4d165b45b71,Form,1,0,consent,NULL,consent,yes,,
1606234729,0ac47e447a262ce597cff4d165b45b71,Form,1,0,consent,NULL,_REACTION_TIME_,3163,,
1606234729,0ac47e447a262ce597cff4d165b45b71,Form,2,0,0_info,NULL,age,24,,
1606234729,0ac47e447a262ce597cff4d165b45b71,Form,2,0,0_info,NULL,natlang,English,,
1606234729,0ac47e447a262ce597cff4d165b45b71,Form,2,0,0_info,NULL,state,Ohio,,
1606234729,0ac47e447a262ce597cff4d165b45b71,Form,2,0,0_info,NULL,parentlang,English,,
1606234729,0ac47e447a262ce597cff4d165b45b71,Form,2,0,0_info,NULL,domlang,English,,
1606234729,0ac47e447a262ce597cff4d165b45b71,Form,2,0,0_info,NULL,otherlang,n/a,,
1606234729,0ac47e447a262ce597cff4d165b45b71,Form,2,0,0_info,NULL,ID,A1FNNL4YJGBU8U,,
1606234729,0ac47e447a262ce597cff4d165b45b71,Form,2,0,0_info,NULL,_REACTION_TIME_,15473,,
1606234729,0ac47e447a262ce597cff4d165b45b71,Form,3,0,intro1,NULL,_REACTION_TIME_,10890,,
1606234729,0ac47e447a262ce597cff4d165b45b71,Form,4,0,intro2,NULL,_REACTION_TIME_,297916,,
1606234729,0ac47e447a262ce597cff4d165b45b71,AY_Form_inst,7,0,control.presup,1,_REACTION_TIME_,2885,,
# Columns below this comment are as follows:,,,,,,,,,,
# 1. Time results were received.,,,,,,,,,,
# 2. MD5 hash of participant's IP address.,,,,,,,,,,
# 3. Controller name.,,,,,,,,,,
# 4. Item number.,,,,,,,,,,
# 5. Element number.,,,,,,,,,,
# 6. Type.,,,,,,,,,,
# 7. Group.,,,,,,,,,,
# 8. Sentence (or sentence MD5).,,,,,,,,,,
1606234729,0ac47e447a262ce597cff4d165b45b71,SingleSlider,7,1,control.presup,1,<p>On this planet%2C some aliens are fleppers and some aliens are not fleppers.</p> <p><b>You overhear a few aliens talking about lammoring%2C but you don't understand it.</b></p> <p>You are about to interview Eva%2C an alien from this planet. The information you've collected about Eva so far suggests this: <b>Eva is a flepper%2C and she likes to lammor.</b></p> ,,,
1606234729,0ac47e447a262ce597cff4d165b45b71,SingleSlider,7,1,control.presup,1, <br> <p>How surprised would you be to learn during the interview that ...?</p> ,,,
# The lines below this comment are in groups of 2.,,,,,,,,,,
# The formats of the lines in each of these groups are as follows:,,,,,,,,,,
#,,,,,,,,,,
# Line 1:,,,,,,,,,,
#     Col. 1: Time results were received.,,,,,,,,,,
#     Col. 2: MD5 hash of participant's IP address.,,,,,,,,,,
#     Col. 3: Controller name.,,,,,,,,,,
#     Col. 4: Item number.,,,,,,,,,,
#     Col. 5: Element number.,,,,,,,,,,
#     Col. 6: Type.,,,,,,,,,,
#     Col. 7: Group.,,,,,,,,,,
#     Col. 8: html.,,,,,,,,,,
#     Col. 9: startValue.,,,,,,,,,,
#     Col. 10: endValue.,,,,,,,,,,
#     Col. 11: value.,,,,,,,,,,
# Line 2:,,,,,,,,,,
#     Col. 1: Time results were received.,,,,,,,,,,
#     Col. 2: MD5 hash of participant's IP address.,,,,,,,,,,
#     Col. 3: Controller name.,,,,,,,,,,
#     Col. 4: Item number.,,,,,,,,,,
#     Col. 5: Element number.,,,,,,,,,,
#     Col. 6: Type.,,,,,,,,,,
#     Col. 7: Group.,,,,,,,,,,
